# Sensor type: Respeck
# Activity type: Sitting
# Activity subtype: Normal
# Subject id: s2094705
# Notes: 
timestamp,accel_x,accel_y,accel_z,gyro_x,gyro_y,gyro_z
1695828853723,0.45117188,-0.7752075,-0.3904419,-2.4375,-2.875,-0.765625
1695828853763,0.39746094,-0.81915283,-0.43804932,-2.578125,-1.765625,-0.71875
1695828853803,0.42919922,-0.82037354,-0.37994385,-1.046875,-2.0,-1.140625
1695828853843,0.41723633,-0.7876587,-0.42315674,-2.1875,-1.796875,0.375
1695828853883,0.40478516,-0.8110962,-0.42559814,-1.140625,-0.109375,-0.078125
1695828853923,0.41552734,-0.79815674,-0.42144775,0.671875,2.625,1.40625
1695828853963,0.42626953,-0.798645,-0.41290283,0.0,1.75,1.09375
1695828854003,0.3947754,-0.81451416,-0.4192505,0.40625,0.859375,1.53125
1695828854043,0.42504883,-0.8069458,-0.40899658,-0.796875,1.859375,0.265625
1695828854083,0.40795898,-0.82403564,-0.41485596,-1.40625,1.25,0.859375
1695828854123,0.39941406,-0.8128052,-0.41436768,-0.640625,2.53125,0.28125
1695828854163,0.42211914,-0.8045044,-0.41558838,-0.453125,0.96875,1.421875
1695828854203,0.42333984,-0.80303955,-0.4121704,-0.796875,1.109375,0.515625
1695828854243,0.41748047,-0.80352783,-0.42437744,-0.078125,-0.375,1.203125
1695828854283,0.42651367,-0.79034424,-0.4133911,0.75,-0.859375,0.9375
1695828854323,0.42236328,-0.8088989,-0.41827393,-0.140625,-0.109375,0.75
1695828854363,0.42504883,-0.7937622,-0.40216064,1.625,-2.328125,0.875
1695828854403,0.43554688,-0.80718994,-0.42340088,-0.390625,-0.015625,1.140625
1695828854443,0.40942383,-0.8076782,-0.41046143,0.515625,-0.171875,0.71875
1695828854484,0.42285156,-0.8069458,-0.42144775,0.171875,0.375,0.40625
1695828854524,0.42211914,-0.78448486,-0.41680908,0.625,0.578125,0.46875
1695828854564,0.42456055,-0.7979126,-0.42633057,0.21875,0.234375,0.609375
1695828854604,0.43408203,-0.7918091,-0.42242432,0.953125,-0.421875,0.453125
1695828854644,0.42700195,-0.7984009,-0.41851807,-0.640625,-0.71875,0.390625
1695828854684,0.43676758,-0.78790283,-0.41973877,0.453125,-0.640625,0.609375
1695828854724,0.40429688,-0.8049927,-0.42071533,0.0,-1.46875,0.109375
1695828854764,0.43066406,-0.78912354,-0.41705322,0.6875,-0.0625,0.0625
1695828854804,0.42358398,-0.7949829,-0.42608643,0.0,-0.390625,0.078125
1695828854844,0.4272461,-0.79034424,-0.41851807,0.453125,-0.21875,-0.1875
1695828854884,0.4267578,-0.7930298,-0.43341064,-0.109375,1.046875,0.015625
1695828854924,0.42749023,-0.79107666,-0.41363525,0.703125,-1.609375,-0.296875
1695828854964,0.43652344,-0.79156494,-0.4487915,-0.546875,-0.578125,0.078125
1695828855004,0.4267578,-0.78692627,-0.43780518,1.109375,0.078125,-0.296875
1695828855044,0.41455078,-0.803772,-0.42633057,0.140625,-0.3125,0.015625
1695828855084,0.4255371,-0.7827759,-0.4336548,0.25,0.046875,-0.140625
1695828855124,0.43286133,-0.7971802,-0.4331665,-0.25,-0.75,0.140625
1695828855164,0.42236328,-0.7959595,-0.4373169,0.015625,-0.765625,-0.078125
1695828855204,0.4177246,-0.78448486,-0.4307251,-0.328125,-0.796875,-0.1875
1695828855245,0.42504883,-0.78790283,-0.43292236,-0.484375,-0.40625,0.453125
1695828855285,0.42749023,-0.7962036,-0.43243408,-0.25,-0.6875,0.078125
1695828855325,0.43041992,-0.7871704,-0.44293213,-0.03125,-0.21875,0.15625
1695828855365,0.4230957,-0.79693604,-0.42510986,0.265625,-0.65625,-0.015625
1695828855405,0.43676758,-0.7786255,-0.43634033,-0.140625,0.28125,0.03125
1695828855445,0.42260742,-0.79693604,-0.43218994,-0.015625,-1.0625,-0.015625
1695828855485,0.44873047,-0.7769165,-0.44439697,-0.046875,0.375,0.125
1695828855525,0.4194336,-0.78912354,-0.43658447,-0.09375,-1.203125,0.375
1695828855565,0.4477539,-0.77545166,-0.458313,-0.28125,1.203125,0.015625
1695828855605,0.42651367,-0.7966919,-0.425354,0.90625,-0.46875,0.4375
1695828855645,0.42260742,-0.7932739,-0.43927002,-0.40625,-0.328125,-0.109375
1695828855685,0.43188477,-0.78082275,-0.4356079,-0.203125,0.015625,0.3125
1695828855725,0.43676758,-0.79278564,-0.43927002,-0.453125,-0.71875,0.15625
1695828855765,0.42944336,-0.7827759,-0.44976807,-0.46875,-0.5,-0.078125
1695828855805,0.43530273,-0.7764282,-0.43707275,-0.046875,-0.171875,0.390625
1695828855845,0.43286133,-0.7918091,-0.42803955,-0.0625,-1.078125,0.328125
1695828855885,0.42407227,-0.79156494,-0.44073486,-0.171875,-0.96875,0.140625
1695828855925,0.4440918,-0.7854614,-0.43414307,-0.03125,-0.65625,-0.140625
1695828855965,0.4177246,-0.7932739,-0.4385376,-0.59375,-0.734375,0.265625
1695828856006,0.4350586,-0.7764282,-0.442688,-0.34375,-0.0625,-0.046875
1695828856046,0.4333496,-0.78692627,-0.4373169,-0.328125,-1.265625,0.046875
1695828856086,0.44702148,-0.77301025,-0.43536377,-0.375,-0.5,-0.015625
1695828856126,0.43530273,-0.7905884,-0.4385376,-1.046875,-1.40625,0.296875
1695828856166,0.43969727,-0.77349854,-0.46661377,-0.203125,0.5625,0.1875
1695828856206,0.43041992,-0.79888916,-0.4258423,0.125,-0.53125,-0.046875
1695828856246,0.4260254,-0.78082275,-0.44122314,-0.21875,-0.15625,-0.234375
1695828856286,0.44213867,-0.7842407,-0.4343872,-0.671875,-0.40625,0.15625
1695828856326,0.43164062,-0.77838135,-0.43756104,-0.265625,-0.578125,0.28125
1695828856366,0.4375,-0.7901001,-0.43902588,-0.6875,-0.734375,0.203125
1695828856406,0.43530273,-0.7678833,-0.43951416,-0.21875,-0.296875,0.53125
1695828856446,0.4387207,-0.79107666,-0.42559814,-0.140625,-1.921875,0.5625
1695828856486,0.4284668,-0.78302,-0.43780518,-0.03125,-1.296875,0.40625
1695828856526,0.4477539,-0.7786255,-0.43585205,-0.65625,-1.578125,0.453125
1695828856566,0.4338379,-0.79571533,-0.43170166,-0.921875,-1.3125,1.09375
1695828856606,0.45092773,-0.77789307,-0.43804932,-1.625,-0.28125,0.671875
1695828856646,0.43139648,-0.7803345,-0.4336548,-1.203125,-1.1875,0.8125
1695828856686,0.4326172,-0.78497314,-0.442688,-1.4375,0.0625,1.0625
1695828856726,0.44604492,-0.7774048,-0.41607666,-0.546875,-1.625,0.109375
1695828856767,0.4423828,-0.7744751,-0.45269775,-1.921875,0.0625,0.84375
1695828856807,0.4572754,-0.7776489,-0.43048096,-0.4375,0.828125,0.203125
1695828856847,0.43603516,-0.79815674,-0.43145752,-0.71875,-0.609375,0.09375
1695828856887,0.45776367,-0.77545166,-0.4241333,-0.703125,0.625,0.03125
1695828856927,0.4489746,-0.7786255,-0.43096924,-1.0625,-0.984375,0.390625
1695828856967,0.45214844,-0.78253174,-0.4385376,-1.21875,-0.21875,-0.125
1695828857007,0.43945312,-0.7732544,-0.43096924,-0.96875,-1.0,0.203125
1695828857047,0.44750977,-0.78302,-0.42730713,-1.4375,-0.265625,0.296875
1695828857087,0.44189453,-0.7781372,-0.4290161,-0.71875,-1.984375,0.359375
1695828857127,0.44458008,-0.78375244,-0.427063,-0.65625,-0.375,-0.03125
1695828857167,0.45507812,-0.786438,-0.42388916,-0.734375,-0.59375,0.421875
1695828857207,0.45263672,-0.7854614,-0.42462158,-0.4375,-0.03125,0.09375
1695828857247,0.45092773,-0.77838135,-0.43243408,-0.140625,-0.796875,-0.0625
1695828857287,0.44873047,-0.7815552,-0.4151001,-0.4375,-0.875,0.078125
1695828857327,0.4555664,-0.7781372,-0.43780518,-0.671875,0.390625,0.15625
1695828857367,0.44360352,-0.7932739,-0.41461182,-0.28125,-2.03125,0.359375
1695828857407,0.46069336,-0.77227783,-0.44683838,-0.84375,1.703125,0.171875
1695828857447,0.45092773,-0.788147,-0.41363525,0.015625,-0.0625,0.234375
1695828857487,0.44091797,-0.7822876,-0.42071533,0.234375,-0.03125,0.234375
1695828857528,0.45629883,-0.7744751,-0.42242432,-0.28125,0.140625,-0.0625
1695828857568,0.4519043,-0.78253174,-0.43096924,0.171875,-0.3125,-0.09375
1695828857608,0.45751953,-0.77301025,-0.42681885,0.296875,-0.796875,0.171875
1695828857648,0.45166016,-0.7866821,-0.42315674,-0.1875,-0.859375,0.0625
1695828857688,0.4494629,-0.77301025,-0.43145752,0.28125,-0.484375,-0.078125
1695828857728,0.44726562,-0.78912354,-0.42755127,0.03125,-1.125,0.09375
1695828857768,0.45288086,-0.77593994,-0.42974854,0.59375,-0.453125,-0.484375
1695828857808,0.45239258,-0.78326416,-0.42755127,0.3125,-0.890625,-0.296875
1695828857848,0.45214844,-0.7769165,-0.42437744,0.765625,-0.1875,-0.3125
1695828857888,0.44873047,-0.7739868,-0.43267822,0.578125,-0.828125,-0.171875
1695828857928,0.45141602,-0.786438,-0.4368286,0.015625,-0.921875,-0.40625
1695828857968,0.4423828,-0.77349854,-0.4385376,0.265625,-0.421875,-0.234375
1695828858008,0.43530273,-0.7756958,-0.41827393,1.28125,-1.640625,-0.75
1695828858048,0.4416504,-0.7798462,-0.44952393,-0.40625,0.734375,-0.015625
1695828858088,0.47070312,-0.76934814,-0.4397583,0.6875,0.46875,-0.53125
1695828858128,0.43847656,-0.7918091,-0.427063,0.5,-0.765625,-0.3125
1695828858168,0.44091797,-0.7630005,-0.4373169,0.171875,-0.171875,-0.90625
1695828858208,0.4453125,-0.7769165,-0.43536377,-0.078125,-0.046875,-0.09375
1695828858248,0.44873047,-0.77423096,-0.4439087,0.15625,-0.828125,-0.625
1695828858289,0.4404297,-0.7798462,-0.43536377,0.28125,-0.75,-0.0625
1695828858329,0.44873047,-0.7703247,-0.4414673,-0.34375,-0.234375,-0.078125
1695828858369,0.44018555,-0.77593994,-0.42803955,-0.21875,-0.5625,-0.3125
1695828858409,0.4506836,-0.7752075,-0.4524536,0.15625,-0.46875,-0.46875
1695828858449,0.43579102,-0.7852173,-0.43634033,0.953125,-0.71875,-0.53125
1695828858489,0.45581055,-0.7781372,-0.44781494,-0.671875,0.4375,-0.265625
1695828858529,0.44848633,-0.7774048,-0.43511963,0.078125,-0.265625,-0.140625
1695828858569,0.43969727,-0.7737427,-0.4492798,-0.234375,-0.484375,-0.3125
1695828858609,0.453125,-0.77423096,-0.43267822,-0.0625,-0.296875,-0.421875
1695828858649,0.44628906,-0.7761841,-0.44000244,-0.625,0.0625,-0.140625
1695828858689,0.46020508,-0.77178955,-0.41558838,-0.265625,-1.390625,-0.46875
1695828858729,0.43408203,-0.7776489,-0.4602661,-1.234375,-0.03125,0.28125
1695828858769,0.45092773,-0.7659302,-0.45269775,0.359375,1.125,0.015625
1695828858809,0.4345703,-0.8015747,-0.42193604,-0.140625,-0.546875,0.25
1695828858849,0.44213867,-0.76763916,-0.4505005,-1.265625,-0.125,0.125
1695828858889,0.4494629,-0.769104,-0.4397583,-1.09375,0.046875,0.46875
1695828858929,0.44677734,-0.77349854,-0.45025635,-1.015625,-0.640625,0.078125
1695828858969,0.44995117,-0.77667236,-0.44830322,-0.953125,-1.328125,0.21875
1695828859009,0.4501953,-0.77008057,-0.43658447,-0.71875,-0.828125,0.515625
1695828859050,0.43554688,-0.7761841,-0.43878174,-0.671875,-1.25,0.375
1695828859090,0.44433594,-0.767395,-0.442688,-0.234375,-0.46875,0.4375
1695828859130,0.45263672,-0.7671509,-0.425354,-0.203125,-0.84375,0.21875
1695828859170,0.44555664,-0.7803345,-0.43902588,-0.828125,-0.671875,0.0625
1695828859210,0.4572754,-0.76104736,-0.440979,-0.40625,-0.078125,0.0625
1695828859250,0.45336914,-0.78375244,-0.43707275,-0.421875,-1.265625,0.015625
1695828859290,0.4465332,-0.7678833,-0.43634033,-0.3125,-0.984375,0.203125
1695828859330,0.44580078,-0.78375244,-0.43243408,-0.171875,-1.453125,-0.234375
1695828859370,0.46411133,-0.7630005,-0.45098877,-0.671875,0.3125,0.046875
1695828859410,0.44580078,-0.7817993,-0.43096924,-0.390625,-1.921875,0.1875
1695828859450,0.46166992,-0.7625122,-0.45367432,-0.78125,1.25,-0.4375
1695828859490,0.45898438,-0.7805786,-0.41778564,0.453125,-0.78125,0.328125
1695828859530,0.43554688,-0.78448486,-0.43023682,-0.234375,-0.359375,-0.578125
1695828859570,0.45410156,-0.7632446,-0.43780518,-0.546875,0.25,-0.125
1695828859610,0.45483398,-0.78302,-0.44122314,-0.34375,-0.78125,-0.015625
1695828859650,0.44140625,-0.7727661,-0.44073486,-0.234375,-0.390625,-0.046875
1695828859690,0.45239258,-0.7678833,-0.4368286,-0.21875,-0.171875,0.15625
1695828859730,0.4519043,-0.78009033,-0.4343872,-0.234375,-1.15625,-0.0625
1695828859770,0.43676758,-0.77227783,-0.43780518,-0.3125,-0.5625,0.0625
1695828859811,0.45947266,-0.7703247,-0.4397583,-0.15625,-0.40625,-0.078125
1695828859851,0.44433594,-0.7827759,-0.4336548,0.0,-1.25,-0.171875
1695828859891,0.45336914,-0.76763916,-0.43902588,-0.484375,0.140625,-0.0625
1695828859931,0.45043945,-0.77789307,-0.4414673,-0.34375,-0.65625,-0.140625
1695828859971,0.44189453,-0.77008057,-0.442688,-0.234375,-0.625,-0.1875
1695828860011,0.45532227,-0.7698364,-0.44293213,-0.359375,0.375,-0.09375
1695828860051,0.4560547,-0.767395,-0.411438,0.015625,-1.796875,-0.28125
1695828860091,0.44262695,-0.7683716,-0.46588135,-1.359375,0.0625,0.3125
1695828860131,0.4560547,-0.7710571,-0.4439087,0.421875,0.984375,-0.28125
1695828860171,0.44677734,-0.7866821,-0.43292236,0.109375,-0.71875,0.15625
1695828860211,0.44433594,-0.7630005,-0.44024658,-0.359375,0.484375,-0.578125
1695828860251,0.45483398,-0.7786255,-0.43170166,-0.59375,0.0,0.078125
1695828860291,0.44873047,-0.7769165,-0.4439087,-0.203125,-0.25,0.0
1695828860331,0.44726562,-0.7678833,-0.43829346,-0.734375,-0.71875,-0.140625
1695828860371,0.45751953,-0.77056885,-0.4451294,-0.734375,-0.84375,-0.09375
1695828860411,0.4428711,-0.770813,-0.44024658,-0.46875,-1.109375,0.15625
1695828860451,0.45043945,-0.77838135,-0.44781494,-0.34375,-0.75,-0.0625
1695828860491,0.44873047,-0.76934814,-0.43389893,0.09375,-0.515625,-0.046875
1695828860531,0.4399414,-0.77960205,-0.44561768,-0.671875,-0.671875,-0.203125
1695828860572,0.46655273,-0.77130127,-0.4368286,-0.3125,-0.328125,-0.125
1695828860612,0.44018555,-0.77008057,-0.4434204,-0.0625,-0.765625,-0.078125
1695828860652,0.4453125,-0.7761841,-0.44024658,-0.59375,-0.328125,-0.484375
1695828860692,0.4560547,-0.76519775,-0.4212036,-0.03125,-1.53125,-0.4375
1695828860732,0.44799805,-0.7720337,-0.4578247,-1.234375,-0.25,0.203125
1695828860772,0.45458984,-0.76031494,-0.44952393,0.15625,1.390625,-0.296875
1695828860812,0.44384766,-0.7871704,-0.42633057,-0.0625,-0.65625,0.234375
1695828860852,0.44213867,-0.77130127,-0.44171143,-0.65625,-0.15625,-0.515625
1695828860892,0.45361328,-0.7715454,-0.4414673,-0.90625,-0.34375,0.171875
1695828860932,0.44506836,-0.7683716,-0.44659424,-0.734375,-1.09375,-0.359375
1695828860972,0.4428711,-0.77056885,-0.4434204,-0.953125,-1.328125,-0.03125
1695828861012,0.46118164,-0.7739868,-0.43658447,-1.09375,-1.234375,0.0625
1695828861052,0.44506836,-0.7756958,-0.4295044,-0.78125,-1.40625,-0.171875
1695828861092,0.44677734,-0.77130127,-0.4446411,-0.53125,-1.171875,-0.03125
1695828861132,0.45654297,-0.77130127,-0.43243408,-0.09375,-0.5,0.1875
1695828861172,0.45043945,-0.7827759,-0.43170166,-1.140625,-1.140625,-0.125
1695828861212,0.45166016,-0.7698364,-0.4336548,-0.65625,-0.125,0.125
1695828861252,0.45922852,-0.76812744,-0.43170166,-0.546875,-0.84375,-0.046875
1695828861292,0.45263672,-0.78131104,-0.4319458,-0.59375,-1.3125,-0.203125
1695828861333,0.46606445,-0.7666626,-0.4290161,-1.125,-0.296875,-0.296875
1695828861373,0.4453125,-0.7756958,-0.44439697,-1.09375,-1.1875,0.21875
1695828861413,0.45922852,-0.76763916,-0.44610596,-1.109375,1.4375,0.015625
1695828861453,0.44604492,-0.7854614,-0.41827393,-0.125,-0.796875,-0.203125
1695828861493,0.45263672,-0.7749634,-0.43121338,-0.84375,-0.234375,-0.0625
1695828861533,0.4555664,-0.7608032,-0.43951416,-0.78125,-0.359375,0.09375
1695828861573,0.45092773,-0.7876587,-0.4319458,-0.84375,-0.625,-0.078125
1695828861613,0.4494629,-0.7698364,-0.4319458,-0.84375,-1.4375,0.0
1695828861653,0.4597168,-0.7661743,-0.4336548,-1.0,-0.671875,0.0
1695828861693,0.45483398,-0.772522,-0.42633057,-0.578125,-0.765625,0.0625
1695828861733,0.4482422,-0.7817993,-0.43341064,-0.921875,-1.046875,-0.171875
1695828861773,0.45703125,-0.77178955,-0.4319458,-0.375,0.03125,0.015625
1695828861813,0.45141602,-0.78375244,-0.42510986,-0.890625,-1.0,0.125
1695828861853,0.45117188,-0.7793579,-0.42730713,-0.390625,-0.234375,-0.15625
1695828861893,0.45629883,-0.7732544,-0.43121338,-0.34375,-0.625,0.171875
1695828861933,0.44848633,-0.78082275,-0.42803955,-0.359375,-0.90625,-0.015625
1695828861973,0.46191406,-0.7720337,-0.4360962,-0.84375,0.40625,-0.15625
1695828862013,0.44873047,-0.78131104,-0.4175415,0.28125,-2.453125,-0.109375
1695828862053,0.45825195,-0.7744751,-0.45465088,-0.6875,1.34375,-0.234375
1695828862094,0.46142578,-0.78253174,-0.41583252,0.546875,-0.125,-0.140625
1695828862134,0.44995117,-0.78375244,-0.43048096,-0.140625,-0.28125,-0.25
1695828862174,0.46069336,-0.7642212,-0.42877197,-0.125,0.15625,-0.171875
1695828862214,0.4580078,-0.7815552,-0.4277954,-0.46875,-0.65625,-0.1875
1695828862254,0.44970703,-0.77667236,-0.43267822,0.359375,-0.59375,0.0625
1695828862294,0.45776367,-0.7744751,-0.42803955,-0.625,-0.828125,0.09375
1695828862334,0.45532227,-0.7739868,-0.4336548,-0.171875,-0.4375,-0.171875
1695828862374,0.44091797,-0.78131104,-0.427063,0.03125,-1.0,-0.03125
1695828862414,0.4638672,-0.7727661,-0.43267822,-0.078125,-0.171875,-0.34375
1695828862454,0.4482422,-0.7776489,-0.42633057,-0.09375,-0.78125,-0.265625
1695828862494,0.4543457,-0.7727661,-0.43829346,-0.125,0.546875,-0.234375
1695828862534,0.45776367,-0.772522,-0.4336548,-0.078125,-0.453125,-0.328125
1695828862574,0.45166016,-0.7761841,-0.43463135,0.328125,-0.59375,-0.328125
1695828862614,0.4465332,-0.77423096,-0.43756104,-0.46875,-0.109375,-0.28125
1695828862654,0.4572754,-0.76641846,-0.4151001,0.5,-1.75,-0.4375
1695828862694,0.44702148,-0.7752075,-0.45635986,-0.84375,-0.15625,0.203125
1695828862734,0.45874023,-0.7620239,-0.44244385,0.71875,1.234375,-0.3125
1695828862774,0.44873047,-0.7930298,-0.42877197,0.359375,-0.703125,-0.171875
1695828862814,0.44921875,-0.7661743,-0.43511963,0.1875,0.015625,-0.421875
1695828862855,0.45654297,-0.7671509,-0.43829346,-0.03125,-0.015625,0.078125
1695828862895,0.45336914,-0.7786255,-0.44317627,-0.0625,-0.296875,-0.234375
1695828862935,0.4501953,-0.7732544,-0.44561768,-0.25,-0.8125,-0.125
1695828862975,0.46166992,-0.7659302,-0.440979,-0.59375,-0.125,-0.234375
1695828863015,0.44384766,-0.7715454,-0.4331665,-0.21875,-0.875,0.0625
1695828863055,0.44677734,-0.77716064,-0.4439087,-0.1875,-0.578125,-0.375
1695828863095,0.44384766,-0.770813,-0.42926025,0.15625,-0.484375,-0.046875
1695828863135,0.4519043,-0.7761841,-0.43780518,-0.25,-0.375,-0.234375
1695828863175,0.4580078,-0.76763916,-0.43902588,0.03125,-0.078125,-0.203125
1695828863215,0.45043945,-0.7744751,-0.4373169,-0.0625,-0.4375,0.125
1695828863255,0.45410156,-0.76690674,-0.4439087,0.078125,-0.703125,-0.09375
1695828863295,0.44140625,-0.7786255,-0.4421997,-0.703125,-0.53125,-0.25
1695828863335,0.4650879,-0.7625122,-0.4212036,0.203125,-1.453125,-0.296875
1695828863375,0.44262695,-0.7727661,-0.4590454,-1.265625,-0.46875,0.03125
1695828863415,0.4555664,-0.7581177,-0.4512329,0.046875,1.59375,-0.296875
1695828863455,0.44848633,-0.7815552,-0.43658447,-0.171875,-1.109375,0.078125
1695828863495,0.44384766,-0.76934814,-0.43927002,-0.34375,0.09375,-0.4375
1695828863535,0.45092773,-0.7678833,-0.4373169,-0.375,0.046875,0.265625
1695828863575,0.45117188,-0.7686157,-0.45343018,-0.65625,-0.765625,-0.171875
1695828863616,0.4501953,-0.7776489,-0.4421997,-0.515625,-0.65625,0.15625
1695828863656,0.4560547,-0.7637329,-0.4451294,-0.671875,-0.53125,-0.03125
1695828863696,0.44506836,-0.7683716,-0.43121338,-0.203125,-0.921875,0.265625
1695828863736,0.4465332,-0.7749634,-0.44610596,-0.671875,-0.765625,-0.171875
1695828863776,0.45141602,-0.77130127,-0.44317627,0.0,-0.21875,0.015625
1695828863816,0.44750977,-0.7817993,-0.44000244,-0.59375,-0.765625,-0.140625
1695828863856,0.4609375,-0.767395,-0.44439697,-0.515625,0.359375,-0.359375
1695828863896,0.44702148,-0.77178955,-0.4439087,-0.640625,-0.453125,0.0625
1695828863936,0.037841797,-1.0025024,-0.10308838,-0.625,-0.453125,0.171875
1695828863976,0.040771484,-0.9854126,-0.09649658,-0.625,-0.0625,-0.03125
1695828864016,0.05126953,-0.9890747,-0.10748291,-1.46875,0.0,-0.203125
1695828864056,0.050048828,-0.99176025,-0.093322754,-1.0625,0.484375,0.0625
1695828864096,0.041748047,-0.99835205,-0.093322754,-1.046875,-0.234375,0.15625
1695828864136,0.038330078,-0.9854126,-0.109680176,-0.96875,0.03125,-0.1875
1695828864176,0.05126953,-0.9907837,-0.0881958,-0.390625,-0.265625,0.25
1695828864216,0.045410156,-0.987854,-0.09552002,-0.59375,-0.21875,-0.046875
1695828864256,0.050048828,-0.98638916,-0.09136963,-0.578125,-0.203125,-0.046875
1695828864296,0.045654297,-0.9949341,-0.097229004,-0.765625,-0.453125,0.171875
1695828864336,0.041259766,-0.99957275,-0.09112549,-0.625,-0.828125,0.15625
1695828864377,0.060546875,-0.9961548,-0.09454346,-1.125,0.21875,0.15625
1695828864417,0.049804688,-0.9939575,-0.08526611,-0.09375,-1.53125,0.734375
1695828864457,0.046875,-0.9763794,-0.11236572,-1.0625,0.5,-0.109375
1695828864497,0.045410156,-1.0088501,-0.08453369,-0.140625,-0.3125,0.1875
1695828864537,0.048095703,-0.9915161,-0.0947876,-0.03125,0.0625,0.3125
1695828864577,0.0546875,-0.9890747,-0.09136963,-0.421875,0.125,0.09375
1695828864617,0.045410156,-0.99835205,-0.09893799,-0.328125,-0.1875,0.28125
1695828864657,0.04711914,-0.99005127,-0.09039307,-0.203125,-0.703125,0.203125
1695828864697,0.0625,-0.9866333,-0.09527588,-0.296875,-0.5625,0.265625
1695828864737,0.05029297,-0.99224854,-0.09649658,-0.109375,-0.859375,0.53125
1695828864777,0.04663086,-0.99468994,-0.09234619,-0.140625,-1.03125,0.359375
1695828864817,0.05419922,-0.9902954,-0.09942627,-0.203125,-0.65625,0.140625
1695828864857,0.05444336,-0.99468994,-0.089416504,-0.078125,-1.390625,0.015625
1695828864897,0.053710938,-0.99102783,-0.097473145,-0.5,-1.078125,0.171875
1695828864937,0.053222656,-0.98687744,-0.09649658,-0.3125,-0.609375,-0.125
1695828864977,0.059814453,-0.99102783,-0.09429932,-0.4375,-0.78125,-0.09375
1695828865017,0.05029297,-0.9920044,-0.08795166,-0.21875,-1.171875,-0.078125
1695828865057,0.072509766,-0.9793091,-0.10748291,-1.375,0.4375,-0.46875
1695828865097,0.056152344,-0.99468994,-0.09112549,-0.5,-1.796875,-0.0625
1695828865138,0.06225586,-0.98028564,-0.11431885,-1.5625,1.015625,-0.4375
1695828865178,0.049804688,-1.0042114,-0.08135986,-0.4375,-0.671875,-0.28125
1695828865218,0.051757812,-0.9998169,-0.09454346,-0.703125,-0.53125,-0.265625
1695828865258,0.060058594,-0.97979736,-0.09210205,-1.46875,0.125,-0.21875
1695828865298,0.045898438,-0.9944458,-0.0881958,-1.59375,-0.34375,0.0
1695828865338,0.05517578,-0.98883057,-0.08306885,-1.515625,-0.9375,-0.25
1695828865378,0.06616211,-0.98883057,-0.08502197,-1.734375,-0.328125,-0.0625
1695828865418,0.052734375,-0.99102783,-0.09039307,-1.59375,-0.609375,0.125
1695828865458,0.049804688,-0.99664307,-0.07965088,-1.640625,-0.578125,-0.015625
1695828865498,0.05078125,-0.9915161,-0.08282471,-1.203125,-0.4375,-0.046875
1695828865538,0.05102539,-0.9924927,-0.07305908,-1.34375,-0.390625,-0.03125
1695828865578,0.059814453,-0.9937134,-0.07989502,-1.484375,0.21875,-0.0625
1695828865618,0.051757812,-0.9885864,-0.073791504,-1.28125,-0.203125,-0.375
1695828865658,0.052490234,-0.9932251,-0.08013916,-1.09375,-0.453125,0.125
1695828865698,0.057373047,-0.9981079,-0.07501221,-0.84375,-0.75,-0.234375
1695828865738,0.07055664,-0.9734497,-0.08502197,-1.421875,0.328125,0.0625
1695828865778,0.05517578,-0.9907837,-0.06793213,0.125,-2.5625,0.5625
1695828865818,0.060302734,-0.97906494,-0.08746338,-0.875,0.328125,0.03125
1695828865858,0.053466797,-1.0056763,-0.06109619,0.46875,-0.78125,0.3125
1695828865899,0.053466797,-0.9985962,-0.06793213,0.65625,-0.484375,0.15625
1695828865939,0.06616211,-0.98272705,-0.081848145,-0.421875,-0.09375,0.03125
1695828865979,0.061035156,-0.99176025,-0.08795166,-0.671875,-0.421875,0.140625
1695828866019,0.057128906,-0.99664307,-0.078186035,-0.28125,-1.828125,0.5
1695828866059,0.06982422,-0.9890747,-0.0869751,-0.796875,-0.71875,0.109375
1695828866099,0.055908203,-0.99420166,-0.07086182,-0.625,-1.09375,0.515625
1695828866139,0.04663086,-0.99786377,-0.08526611,-0.15625,-0.921875,0.34375
1695828866179,0.06591797,-0.9837036,-0.08331299,-0.25,-0.171875,0.125
1695828866219,0.06201172,-0.9951782,-0.07598877,-0.125,-0.671875,0.09375
1695828866259,0.06933594,-0.98687744,-0.07550049,-0.328125,-0.09375,0.09375
1695828866299,0.06933594,-0.99298096,-0.073791504,-0.1875,-0.1875,0.109375
1695828866339,0.05859375,-0.99591064,-0.070129395,0.171875,-0.671875,0.34375
1695828866379,0.072265625,-0.98931885,-0.08477783,-0.078125,0.34375,0.25
1695828866419,0.05126953,-0.99591064,-0.057678223,0.484375,-2.234375,0.453125
1695828866459,0.07128906,-0.97442627,-0.097717285,-0.859375,0.140625,-0.015625
1695828866499,0.068359375,-0.9961548,-0.07305908,0.125,0.359375,0.40625
1695828866539,0.059326172,-1.0073853,-0.07354736,0.4375,-0.5625,0.484375
1695828866579,0.06542969,-0.9807739,-0.081604004,0.484375,-0.375,0.1875
1695828866619,0.07055664,-0.9873657,-0.082092285,0.46875,-0.453125,0.25
1695828866660,0.060791016,-0.9873657,-0.06915283,0.828125,-0.65625,0.40625
1695828866700,0.0690918,-0.99346924,-0.08135986,0.375,-0.90625,0.171875
1695828866740,0.0769043,-0.98687744,-0.08258057,0.203125,-0.625,-0.078125
1695828866780,0.053466797,-0.99884033,-0.081848145,0.390625,-0.953125,0.21875
1695828866820,0.06738281,-0.9871216,-0.093322754,0.46875,-0.515625,-0.125
1695828866860,0.07373047,-0.99346924,-0.081848145,0.734375,-0.640625,0.203125
1695828866900,0.06762695,-0.989563,-0.08843994,0.71875,-0.65625,0.28125
1695828866940,0.06640625,-0.9902954,-0.08843994,0.546875,-0.1875,0.171875
1695828866980,0.068847656,-0.989563,-0.09136963,0.703125,-0.46875,0.046875
1695828867020,0.064697266,-1.0012817,-0.089660645,0.9375,-1.046875,0.453125
1695828867060,0.080078125,-0.97662354,-0.10333252,0.84375,0.3125,-0.28125
1695828867100,0.078125,-0.99786377,-0.08892822,1.34375,-1.296875,-0.21875
1695828867140,0.076416016,-0.9651489,-0.12310791,0.53125,0.765625,-0.546875
1695828867180,0.0703125,-1.0071411,-0.08795166,1.546875,-0.375,0.015625
1695828867220,0.0690918,-1.0027466,-0.10235596,1.328125,-0.484375,0.234375
1695828867260,0.0715332,-0.9771118,-0.10040283,0.859375,0.171875,0.203125
1695828867300,0.05810547,-0.99346924,-0.105529785,0.125,-0.28125,0.34375
1695828867340,0.06713867,-0.9961548,-0.10723877,-0.171875,-0.28125,-0.171875
1695828867380,0.07739258,-0.986145,-0.11553955,-0.09375,-0.203125,-0.0625
1695828867421,0.068115234,-0.991272,-0.10699463,0.15625,-0.3125,0.234375
1695828867461,0.061279297,-0.99786377,-0.113098145,0.0625,-0.40625,0.15625
1695828867501,0.07739258,-0.97979736,-0.11627197,0.015625,0.53125,-0.203125
1695828867541,0.072753906,-0.98565674,-0.108947754,-0.03125,-0.046875,0.03125
1695828867581,0.07128906,-0.98931885,-0.11065674,0.125,0.125,0.15625
1695828867621,0.06982422,-0.99053955,-0.10723877,-0.09375,0.15625,0.046875
1695828867661,0.07397461,-0.9927368,-0.11480713,0.078125,-0.046875,0.234375
1695828867701,0.07348633,-0.9932251,-0.113098145,-0.421875,0.46875,0.0
1695828867741,0.07324219,-0.98516846,-0.10430908,-0.125,-0.515625,-0.046875
1695828867781,0.067871094,-0.9883423,-0.120910645,-0.390625,-0.8125,0.15625
1695828867821,0.07885742,-0.97491455,-0.13018799,-0.5625,0.953125,-0.625
1695828867861,0.07739258,-1.0066528,-0.09893799,0.125,-0.421875,0.265625
1695828867901,0.07055664,-0.99053955,-0.11138916,-0.171875,-0.171875,-0.265625
1695828867941,0.08154297,-0.9793091,-0.109680176,-0.484375,-0.203125,-0.34375
1695828867981,0.06738281,-0.9963989,-0.11651611,-0.234375,-0.3125,-0.0625
1695828868021,0.07714844,-0.9902954,-0.11114502,-0.4375,-0.734375,-0.234375
1695828868061,0.072509766,-0.98223877,-0.12432861,-0.40625,-0.453125,-0.296875
1695828868101,0.07128906,-0.9898071,-0.10797119,-0.546875,-0.734375,-0.296875
1695828868141,0.064697266,-0.99224854,-0.11529541,-0.4375,-0.796875,-0.3125
1695828868182,0.07470703,-0.9837036,-0.11578369,-0.453125,0.03125,-0.515625
1695828868222,0.06640625,-0.9949341,-0.109436035,-0.296875,-0.65625,-0.046875
1695828868262,0.067871094,-0.98321533,-0.11553955,-0.265625,-0.15625,-0.296875
1695828868302,0.08081055,-0.99053955,-0.10650635,-0.265625,-0.359375,-0.21875
1695828868342,0.06591797,-0.99102783,-0.11553955,-0.25,-0.671875,-0.140625
1695828868382,0.07836914,-0.9898071,-0.105773926,0.265625,-0.8125,0.234375
1695828868422,0.07348633,-0.99420166,-0.12994385,-0.84375,0.03125,-0.3125
1695828868462,0.068603516,-1.0012817,-0.10699463,0.15625,-1.59375,0.078125
1695828868502,0.07714844,-0.96661377,-0.13214111,-0.671875,0.515625,-0.4375
1695828868542,0.07055664,-0.99713135,-0.10699463,0.078125,-0.25,0.046875
1695828868582,0.068359375,-0.99664307,-0.1116333,-0.046875,-0.265625,0.09375
1695828868622,0.08227539,-0.97735596,-0.11260986,-0.453125,-0.171875,-0.625
1695828868662,0.059814453,-0.99884033,-0.11529541,-0.421875,-0.671875,0.1875
1695828868702,0.0715332,-0.98516846,-0.11187744,-0.34375,-0.59375,-0.078125
1695828868742,0.0769043,-0.98272705,-0.11773682,-0.390625,-0.765625,-0.0625
1695828868782,0.0703125,-0.98809814,-0.11456299,-0.078125,-0.84375,0.0625
1695828868822,0.068603516,-0.99176025,-0.108947754,-0.140625,-1.296875,0.046875
1695828868862,0.06274414,-0.99346924,-0.117492676,-0.234375,-1.84375,-0.0625
1695828868902,0.08105469,-0.986145,-0.11920166,-0.265625,-1.4375,-0.296875
1695828868943,0.07299805,-0.98809814,-0.11553955,-0.09375,-1.890625,-0.015625
1695828868983,0.07519531,-0.98028564,-0.11773682,-0.546875,-1.109375,-0.265625
1695828869023,0.076171875,-0.98931885,-0.11431885,-0.578125,-0.84375,-0.34375
1695828869063,0.07885742,-0.9849243,-0.11090088,-0.234375,-1.203125,-0.0625
1695828869103,0.06567383,-0.98223877,-0.12530518,-0.546875,-0.78125,-0.15625
1695828869143,0.06665039,-0.99005127,-0.10992432,-0.171875,-1.40625,-0.015625
1695828869183,0.07714844,-0.975647,-0.13165283,-1.25,0.34375,-0.53125
1695828869223,0.0769043,-0.98760986,-0.10675049,-0.421875,-1.796875,-0.140625
1695828869263,0.080078125,-0.97076416,-0.13409424,-1.515625,0.859375,-0.421875
1695828869303,0.06982422,-1.00177,-0.09454346,-0.59375,-0.53125,-0.171875
1695828869343,0.06738281,-0.99957275,-0.10748291,-0.796875,-0.53125,-0.21875
1695828869383,0.088134766,-0.9710083,-0.11187744,-1.453125,0.21875,-0.34375
1695828869423,0.06616211,-0.987854,-0.11505127,-1.6875,-0.234375,0.03125
1695828869463,0.072021484,-0.9944458,-0.10699463,-1.15625,-0.828125,-0.046875
1695828869503,0.07788086,-0.9819946,-0.11627197,-1.40625,-0.640625,-0.1875
1695828869543,0.07299805,-0.98931885,-0.10430908,-1.0625,-0.84375,0.15625
1695828869583,0.067871094,-0.9907837,-0.11065674,-1.140625,-0.859375,0.078125
1695828869623,0.07421875,-0.98150635,-0.10479736,-1.140625,-0.578125,-0.25
1695828869663,0.072265625,-0.9866333,-0.10601807,-1.078125,-0.3125,-0.203125
1695828869704,0.063964844,-0.9939575,-0.09625244,-0.921875,-0.203125,0.015625
1695828869744,0.07421875,-0.98565674,-0.10479736,-1.0625,-0.296875,-0.328125
1695828869784,0.07104492,-0.9849243,-0.101135254,-0.703125,-0.28125,-0.34375
1695828869824,0.076416016,-0.9859009,-0.09649658,-0.53125,-0.453125,-0.046875
1695828869864,0.06958008,-0.9824829,-0.112854004,-0.5,-0.296875,-0.125
1695828869904,0.07836914,-0.9973755,-0.09259033,-0.578125,-0.484375,-0.15625
1695828869944,0.067871094,-0.9939575,-0.09844971,-0.578125,-0.09375,-0.078125
1695828869984,0.064453125,-0.9841919,-0.08721924,-0.453125,-2.0,-0.375
1695828870024,0.07519531,-0.98516846,-0.11578369,-0.828125,-0.234375,-0.203125
1695828870064,0.07763672,-0.98809814,-0.101623535,-0.375,0.15625,-0.453125
1695828870104,0.07080078,-0.99957275,-0.09698486,-0.03125,-0.75,0.0625
1695828870144,0.07299805,-0.97491455,-0.09991455,-0.453125,-0.375,-0.40625
1695828870184,0.06982422,-0.98223877,-0.10430908,-0.53125,-0.3125,-0.28125
1695828870224,0.07421875,-0.9951782,-0.10284424,-0.203125,-0.28125,-0.109375
1695828870264,0.07299805,-0.9937134,-0.101135254,-0.109375,-1.203125,0.015625
1695828870304,0.087890625,-0.9807739,-0.10015869,-0.4375,-0.609375,-0.140625
1695828870344,0.061035156,-0.99053955,-0.09527588,0.0625,-0.59375,0.25
1695828870384,0.080566406,-0.9890747,-0.10308838,-0.140625,-0.359375,-0.46875
1695828870424,0.08569336,-0.97979736,-0.101623535,-0.078125,-0.3125,0.1875
1695828870465,0.0625,-0.99591064,-0.10089111,-0.0625,-0.65625,-0.09375
1695828870505,0.07836914,-0.98638916,-0.10455322,-0.234375,0.140625,-0.015625
1695828870545,0.07421875,-0.9841919,-0.10235596,0.078125,-0.40625,-0.03125
1695828870585,0.07128906,-0.9937134,-0.10284424,0.1875,-0.265625,0.03125
1695828870625,0.076660156,-0.9834595,-0.101135254,-0.03125,-0.703125,-0.1875
1695828870665,0.075927734,-0.9898071,-0.10089111,-0.0625,-0.609375,-0.03125
1695828870705,0.06298828,-1.0005493,-0.101623535,-0.03125,-0.6875,-0.078125
1695828870745,0.07763672,-0.9734497,-0.090148926,-0.046875,-0.671875,-0.453125
1695828870785,0.068603516,-0.9907837,-0.11529541,-0.34375,-0.765625,0.15625
1695828870825,0.0793457,-0.9771118,-0.117248535,-0.328125,0.484375,-0.53125
1695828870865,0.068603516,-1.0027466,-0.10089111,0.671875,-0.671875,0.109375
1695828870905,0.07324219,-0.9807739,-0.10308838,0.5,-0.5625,-0.234375
1695828870945,0.076416016,-0.9783325,-0.10723877,0.109375,-0.53125,-0.09375
1695828870985,0.068115234,-0.9898071,-0.10821533,0.0,-0.578125,0.0
1695828871025,0.072753906,-0.9956665,-0.10699463,0.078125,-1.046875,-0.171875
1695828871065,0.08251953,-0.98883057,-0.108947754,-0.125,-0.5625,0.109375
1695828871105,0.068603516,-0.9849243,-0.11456299,0.28125,-0.6875,0.203125
1695828871145,0.06958008,-0.9915161,-0.10601807,0.34375,-0.859375,-0.09375
1695828871185,0.08496094,-0.9944458,-0.11480713,0.359375,-0.09375,-0.3125
1695828871226,0.06713867,-0.991272,-0.10357666,0.375,-0.734375,0.109375
1695828871266,0.07080078,-0.986145,-0.11090088,0.265625,-0.625,0.078125
1695828871306,0.07446289,-0.98565674,-0.121154785,0.03125,-0.65625,-0.03125
1695828871346,0.0793457,-0.9854126,-0.11480713,0.34375,-0.875,0.15625
1695828871386,0.076416016,-0.98394775,-0.11773682,0.328125,-0.765625,0.25
1695828871426,0.07104492,-0.991272,-0.11773682,0.078125,-0.5,-0.109375
1695828871466,0.076416016,-0.9956665,-0.11627197,0.109375,-0.8125,-0.078125
1695828871506,0.07446289,-0.9873657,-0.12237549,0.125,-0.5625,0.078125
1695828871546,0.07104492,-0.9937134,-0.1194458,-0.28125,-0.453125,-0.421875
1695828871586,0.083740234,-0.98565674,-0.12042236,-0.03125,-0.328125,-0.234375
1695828871626,0.06713867,-0.9963989,-0.121398926,-0.015625,-1.046875,0.140625
1695828871666,0.091308594,-0.9656372,-0.13336182,-0.46875,0.65625,-0.609375
1695828871706,0.064941406,-1.0061646,-0.11260986,0.515625,-0.609375,-0.03125
1695828871746,0.068847656,-0.98565674,-0.120666504,0.171875,-0.234375,-0.421875
1695828871786,0.07714844,-0.97979736,-0.11871338,-0.125,-0.09375,-0.1875
1695828871826,0.061523438,-0.9924927,-0.12286377,-0.296875,-0.625,0.046875
1695828871866,0.07763672,-0.9907837,-0.12164307,-0.296875,-0.375,-0.359375
1695828871906,0.076416016,-0.9854126,-0.124816895,-0.703125,-0.359375,-0.21875
1695828871946,0.07421875,-0.97857666,-0.120666504,-0.671875,-0.40625,-0.234375
1695828871987,0.06665039,-0.99420166,-0.11968994,-0.703125,-0.9375,-0.140625
1695828872027,0.07299805,-0.98272705,-0.13311768,-0.640625,-0.40625,-0.15625
1695828872067,0.080566406,-0.9859009,-0.11578369,-0.6875,-0.53125,0.0
1695828872107,0.067871094,-0.99591064,-0.11627197,-0.59375,-0.625,0.125
1695828872147,0.072265625,-0.98028564,-0.12628174,-0.734375,-0.296875,-0.203125
1695828872187,0.08251953,-0.9902954,-0.12017822,-0.265625,-0.375,-0.046875
1695828872227,0.078125,-0.99468994,-0.11920166,-0.21875,-0.53125,0.15625
1695828872267,0.078125,-0.9902954,-0.12237549,-0.28125,-0.421875,-0.109375
1695828872307,0.07543945,-0.99053955,-0.121154785,-0.15625,-0.4375,0.0
1695828872347,0.07373047,-0.98516846,-0.12164307,-0.375,-0.40625,-0.046875
1695828872387,0.07104492,-0.9873657,-0.116760254,-0.1875,-0.40625,-0.140625
1695828872427,0.068603516,-0.9849243,-0.124572754,-0.359375,0.46875,0.03125
1695828872467,0.06762695,-0.9829712,-0.09869385,-0.046875,-1.28125,0.125
1695828872507,0.07885742,-0.9883423,-0.1326294,-0.609375,-0.765625,0.015625
1695828872547,0.08251953,-0.9800415,-0.12896729,-0.3125,-0.09375,-0.296875
1695828872587,0.06616211,-1.0037231,-0.10723877,-0.265625,-1.09375,0.1875
1695828872627,0.078125,-0.9793091,-0.12677002,-0.1875,-0.546875,-0.375
1695828872667,0.068603516,-0.98150635,-0.12164307,-0.53125,-0.4375,-0.359375
1695828872707,0.07055664,-0.9973755,-0.12408447,-0.703125,-0.328125,-0.03125
1695828872748,0.07885742,-0.9924927,-0.112854004,-0.625,-1.203125,-0.28125
1695828872788,0.08300781,-0.9937134,-0.12017822,-1.28125,-0.875,-0.21875
1695828872828,0.07397461,-0.9871216,-0.11529541,-1.015625,-0.765625,-0.28125
1695828872868,0.064941406,-0.9885864,-0.113342285,-1.25,-0.921875,-0.34375
1695828872908,0.079833984,-0.98687744,-0.117004395,-1.140625,-0.5,-0.390625
1695828872948,0.076416016,-0.98809814,-0.10992432,-1.171875,-0.453125,-0.09375
1695828872988,0.06591797,-0.9949341,-0.113342285,-1.5,0.0,-0.328125
1695828873028,0.072753906,-0.9849243,-0.11431885,-1.59375,0.15625,-0.421875
1695828873068,0.07519531,-0.98931885,-0.109436035,-1.34375,-0.09375,-0.109375
1695828873108,0.06640625,-0.986145,-0.10675049,-1.359375,-0.296875,-0.140625
1695828873148,0.07836914,-0.99005127,-0.10601807,-1.453125,-0.390625,-0.5
1695828873188,0.06616211,-0.99005127,-0.09869385,-1.1875,-0.640625,-0.515625
1695828873228,0.06298828,-0.9854126,-0.105529785,-1.21875,-0.78125,-0.328125
1695828873268,0.06933594,-0.9849243,-0.09893799,-0.984375,-0.734375,-0.421875
1695828873308,0.068359375,-0.9981079,-0.09869385,-1.21875,-0.921875,-0.109375
1695828873348,0.07836914,-0.97979736,-0.1038208,-1.390625,-0.21875,-0.515625
1695828873388,0.072265625,-0.9961548,-0.1026001,-0.90625,-1.546875,-0.015625
1695828873428,0.07080078,-0.98223877,-0.10748291,-1.171875,0.078125,-0.40625
1695828873468,0.064453125,-1.0015259,-0.08892822,-0.40625,-0.4375,0.15625
1695828873509,0.072509766,-0.98638916,-0.097229004,-0.671875,-0.3125,-0.296875
1695828873549,0.06225586,-0.9849243,-0.09820557,-1.0,0.015625,-0.078125
1695828873589,0.06567383,-0.9898071,-0.10015869,-0.65625,-0.390625,-0.0625
1695828873629,0.071777344,-0.989563,-0.10064697,-0.359375,-0.75,-0.09375
1695828873669,0.07788086,-0.9846802,-0.0881958,-0.734375,-0.765625,0.0
1695828873709,0.06518555,-0.989563,-0.09039307,-0.953125,-0.671875,-0.03125
1695828873749,0.064208984,-0.99346924,-0.09869385,-0.84375,-0.875,0.09375
1695828873789,0.08544922,-0.98394775,-0.09552002,-0.703125,-0.734375,-0.640625
1695828873829,0.06591797,-0.9854126,-0.09893799,-0.734375,-0.65625,0.109375
1695828873869,0.064697266,-0.9924927,-0.09625244,-0.640625,-0.5625,-0.125
1695828873909,0.072021484,-0.98443604,-0.10064697,-0.515625,-0.484375,-0.0625
1695828873949,0.075683594,-0.99102783,-0.08868408,-0.3125,-0.53125,-0.03125
1695828873989,0.068115234,-0.9883423,-0.093322754,-0.46875,-0.546875,0.046875
1695828874029,0.07421875,-0.98687744,-0.09063721,-0.203125,-0.796875,-0.265625
1695828874069,0.07446289,-0.9805298,-0.10015869,-0.25,-0.640625,-0.015625
1695828874109,0.07055664,-0.99420166,-0.09234619,-0.09375,-0.703125,0.015625
1695828874149,0.068847656,-0.9841919,-0.09454346,-1.109375,0.34375,-0.125
1695828874189,0.06713867,-0.99786377,-0.089660645,0.5625,-1.734375,0.09375
1695828874229,0.07763672,-0.97784424,-0.113342285,-0.34375,0.328125,-0.15625
1695828874270,0.072509766,-0.9956665,-0.09259033,0.28125,0.046875,0.203125
1695828874310,0.06933594,-0.99957275,-0.09259033,-0.0625,-0.21875,0.0625
1695828874350,0.07519531,-0.9793091,-0.101623535,-0.09375,0.171875,-0.28125
1695828874390,0.07519531,-0.9907837,-0.09307861,-0.15625,-0.3125,0.140625
1695828874430,0.068359375,-0.99224854,-0.09552002,0.0625,-0.359375,-0.234375
1695828874470,0.07861328,-0.9939575,-0.11260986,-0.078125,-0.78125,-0.03125
1695828874510,0.08227539,-0.97613525,-0.10015869,-0.28125,-0.5625,-0.34375
1695828874550,0.053466797,-0.99713135,-0.09820557,-0.125,-0.84375,0.265625
1695828874590,0.07299805,-0.9800415,-0.10040283,-0.171875,-0.6875,-0.453125
1695828874630,0.068359375,-0.986145,-0.09576416,-0.109375,-0.375,0.015625
1695828874670,0.0637207,-0.99468994,-0.09527588,0.0,-0.671875,-0.046875
1695828874710,0.07324219,-0.9841919,-0.1026001,-0.375,0.296875,-0.234375
1695828874750,0.072509766,-0.9927368,-0.09576416,-0.140625,-0.4375,0.046875
1695828874790,0.071777344,-0.98883057,-0.1038208,0.171875,-0.609375,0.078125
1695828874830,0.07373047,-0.99005127,-0.09576416,0.125,-0.328125,-0.03125
1695828874870,0.072021484,-0.99005127,-0.108947754,-0.03125,-0.46875,0.171875
1695828874910,0.0715332,-0.98809814,-0.10089111,0.234375,-0.578125,-0.203125
1695828874950,0.068115234,-0.9902954,-0.10845947,0.03125,0.046875,0.046875
1695828874990,0.059570312,-0.9885864,-0.08917236,0.78125,-1.484375,0.234375
1695828875031,0.080566406,-0.97662354,-0.12432861,-0.421875,0.03125,0.0
1695828875071,0.0769043,-0.98931885,-0.10699463,0.234375,-0.25,0.109375
1695828875111,0.06298828,-1.0025024,-0.101379395,0.34375,-0.734375,0.203125
1695828875151,0.07885742,-0.9883423,-0.1104126,0.125,-0.140625,-0.328125
1695828875191,0.07006836,-0.9924927,-0.10601807,-0.21875,-0.3125,0.171875
1695828875231,0.0703125,-0.9902954,-0.11114502,-0.046875,-0.640625,-0.203125
1695828875271,0.071777344,-0.9924927,-0.11065674,-0.078125,-0.8125,-0.265625
1695828875311,0.0847168,-0.98565674,-0.11407471,-0.265625,-0.546875,0.0
1695828875351,0.06665039,-0.9871216,-0.10723877,0.046875,-0.671875,0.078125
1695828875391,0.068847656,-0.99346924,-0.11505127,-0.296875,-0.890625,-0.328125
1695828875431,0.08129883,-0.9898071,-0.11627197,-0.0625,0.09375,-0.21875
1695828875471,0.071777344,-0.99346924,-0.10406494,0.21875,-0.875,-0.015625
1695828875511,0.07397461,-0.98687744,-0.11407471,-0.234375,-0.328125,-0.09375
1695828875551,0.0715332,-0.98443604,-0.108947754,-0.109375,-0.046875,0.046875
1695828875591,0.078125,-0.9885864,-0.11260986,0.171875,-0.34375,0.109375
1695828875631,0.07128906,-0.9883423,-0.108947754,-0.015625,-0.484375,-0.078125
1695828875671,0.08227539,-0.98223877,-0.11090088,-0.15625,-0.625,-0.0625
1695828875711,0.07128906,-0.9932251,-0.11138916,-0.171875,-0.46875,-0.03125
1695828875751,0.072753906,-0.986145,-0.11480713,-0.25,0.140625,-0.1875
1695828875792,0.07373047,-0.9812622,-0.093322754,0.109375,-0.984375,-0.171875
1695828875832,0.08178711,-0.99224854,-0.12384033,-0.59375,-0.671875,-0.28125
1695828875872,0.07714844,-0.9727173,-0.12408447,-0.390625,0.234375,-0.359375
1695828875912,0.07080078,-1.0064087,-0.10333252,0.109375,-0.65625,0.046875
1695828875952,0.078125,-0.9866333,-0.113342285,-0.078125,-0.140625,-0.328125
1695828875992,0.07104492,-0.9834595,-0.11016846,-0.265625,-0.171875,-0.046875
1695828876032,0.06933594,-0.9885864,-0.11798096,-0.4375,-0.265625,0.03125
1695828876072,0.076171875,-0.98883057,-0.11016846,-0.0625,-0.8125,-0.078125
1695828876112,0.07446289,-0.99224854,-0.117248535,-0.46875,-0.296875,0.09375
1695828876152,0.07470703,-0.98223877,-0.116760254,-0.3125,-0.671875,0.15625
1695828876192,0.07324219,-0.9993286,-0.113098145,-0.578125,-0.96875,-0.125
1695828876232,0.07446289,-0.98809814,-0.1182251,-0.625,-0.703125,-0.1875
1695828876272,0.07446289,-0.98394775,-0.10845947,-0.65625,-1.203125,-0.0625
1695828876312,0.067871094,-0.99957275,-0.11456299,-0.71875,-1.296875,-0.015625
1695828876352,0.06982422,-0.98394775,-0.11260986,-0.984375,-0.984375,-0.34375
1695828876392,0.07421875,-0.9920044,-0.105041504,-1.125,-0.921875,0.234375
1695828876432,0.07543945,-0.98638916,-0.11090088,-0.9375,-0.921875,-0.09375
1695828876472,0.0715332,-0.9871216,-0.10650635,-1.0,-0.9375,-0.125
1695828876512,0.08178711,-0.9834595,-0.11212158,-1.21875,-0.6875,-0.234375
1695828876553,-0.41723633,-0.9014282,0.13153076,-0.640625,0.328125,0.25
1695828876593,-0.40429688,-0.89727783,0.14349365,0.078125,-0.4375,-0.28125
1695828876633,-0.43017578,-0.9031372,0.14642334,-0.71875,0.5,-0.15625
1695828876673,-0.41137695,-0.90216064,0.15960693,0.03125,-0.453125,-0.21875
1695828876713,-0.41137695,-0.8948364,0.13494873,-1.21875,-0.828125,-0.40625
1695828876753,-0.41088867,-0.8933716,0.13153076,-0.390625,0.0,-0.390625
1695828876793,-0.42285156,-0.9158325,0.15838623,-0.375,-0.453125,-0.296875
1695828876833,-0.4284668,-0.892395,0.14471436,-0.640625,0.171875,-0.40625
1695828876873,-0.41723633,-0.8982544,0.1515503,-0.828125,-0.125,-0.015625
1695828876913,-0.4260254,-0.8933716,0.13665771,-0.828125,-0.875,-0.140625
1695828876953,-0.41577148,-0.90631104,0.15374756,-0.578125,-0.0625,-0.265625
1695828876993,-0.41625977,-0.8970337,0.14642334,-1.15625,0.609375,-0.375
1695828877033,-0.41625977,-0.89801025,0.14764404,-0.78125,-0.265625,-0.1875
1695828877073,-0.4182129,-0.90338135,0.14813232,-1.03125,-0.46875,-0.375
1695828877113,-0.4099121,-0.8987427,0.14349365,-0.484375,0.1875,-0.203125
1695828877153,-0.4140625,-0.89801025,0.15618896,-0.75,-0.59375,-0.359375
1695828877193,-0.4116211,-0.8948364,0.14788818,-1.0625,0.109375,-0.3125
1695828877233,-0.41259766,-0.89727783,0.1564331,-0.5,-0.15625,0.03125
1695828877273,-0.42382812,-0.9077759,0.14788818,-1.046875,-0.421875,-0.453125
1695828877314,-0.40576172,-0.8970337,0.15716553,-0.28125,-0.03125,-0.1875
1695828877354,-0.4284668,-0.8904419,0.15716553,-0.734375,-1.21875,-0.328125
1695828877394,-0.40625,-0.8880005,0.14520264,-0.65625,0.171875,-0.28125
1695828877434,-0.4189453,-0.911438,0.15985107,-0.28125,-0.59375,-0.203125
1695828877474,-0.41357422,-0.8945923,0.16082764,-0.1875,-0.78125,-0.03125
1695828877514,-0.42114258,-0.8870239,0.15618896,-0.90625,-0.390625,-0.296875
1695828877554,-0.41674805,-0.89385986,0.15081787,-1.0625,-1.015625,-0.328125
1695828877594,-0.41723633,-0.8911743,0.15618896,-0.328125,-0.78125,-0.390625
1695828877634,-0.41381836,-0.8994751,0.15252686,-0.84375,-0.609375,-0.046875
1695828877674,-0.42456055,-0.8977661,0.15179443,-0.6875,-0.875,-0.125
1695828877714,-0.421875,-0.90582275,0.15838623,-0.484375,-0.828125,-0.140625
1695828877754,-0.41967773,-0.8911743,0.15863037,-0.515625,-0.859375,-0.296875
1695828877794,-0.42114258,-0.89849854,0.15692139,-1.1875,-1.09375,-0.828125
1695828877834,-0.4194336,-0.8977661,0.14984131,-0.625,-1.046875,-0.125
1695828877874,-0.42138672,-0.8945923,0.15618896,-0.671875,-0.234375,-0.203125
1695828877914,-0.42138672,-0.9011841,0.16668701,-0.921875,-0.015625,-0.0625
1695828877954,-0.4086914,-0.89385986,0.14837646,-1.265625,-0.171875,-0.15625
1695828877994,-0.42456055,-0.89727783,0.168396,-0.078125,-2.234375,0.171875
1695828878034,-0.40771484,-0.8862915,0.13763428,-0.953125,-0.859375,-0.34375
1695828878075,-0.42895508,-0.9048462,0.15008545,-0.921875,-0.90625,-0.21875
1695828878115,-0.42407227,-0.9089966,0.16815186,-0.578125,-0.546875,-0.484375
1695828878155,-0.4177246,-0.88897705,0.15350342,-0.90625,-0.140625,-0.171875
1695828878195,-0.42138672,-0.895813,0.15447998,-0.796875,-1.078125,-0.078125
1695828878235,-0.42626953,-0.89141846,0.15838623,-0.421875,-0.6875,-0.046875
1695828878275,-0.43115234,-0.9006958,0.15350342,-0.828125,-0.71875,-0.109375
1695828878315,-0.39526367,-0.88775635,0.15545654,-0.515625,-0.578125,-0.1875
1695828878355,-0.42407227,-0.9038696,0.16326904,-0.75,-0.828125,0.015625
1695828878395,-0.41870117,-0.8904419,0.16204834,-0.5,-1.0,-0.078125
1695828878435,-0.41455078,-0.89434814,0.1630249,-0.21875,-0.515625,-0.125
1695828878475,-0.42504883,-0.90582275,0.16229248,-0.203125,-1.03125,-0.09375
1695828878515,-0.41918945,-0.8887329,0.1515503,-0.421875,-0.484375,-0.296875
1695828878555,-0.42163086,-0.8921509,0.16107178,0.0,-0.890625,-0.09375
1695828878595,-0.42700195,-0.89923096,0.1486206,-0.40625,-0.5,-0.09375
1695828878635,-0.42114258,-0.89508057,0.1671753,0.296875,-1.15625,-0.0625
1695828878675,-0.4255371,-0.88897705,0.14447021,-0.75,-0.359375,-0.171875
1695828878715,-0.4177246,-0.9036255,0.14422607,-0.171875,0.75,-0.03125
1695828878755,-0.42578125,-0.9085083,0.16937256,0.421875,-0.5,0.109375
1695828878795,-0.41796875,-0.8875122,0.15032959,-0.078125,-0.203125,-0.0625
1695828878836,-0.4255371,-0.8928833,0.16033936,-0.328125,0.046875,0.171875
1695828878876,-0.42797852,-0.8933716,0.14788818,-0.484375,0.0625,-0.1875
1695828878916,-0.42041016,-0.8999634,0.1618042,0.0625,-0.6875,-0.015625
1695828878956,-0.41870117,-0.89923096,0.15789795,-0.40625,-0.15625,-0.140625
1695828878996,-0.43041992,-0.8945923,0.16595459,-0.234375,-0.34375,0.03125
1695828879036,-0.41137695,-0.9036255,0.15423584,0.15625,-0.484375,-0.046875
1695828879076,-0.41064453,-0.89019775,0.15789795,-0.171875,-0.015625,0.21875
1695828879116,-0.42358398,-0.8897095,0.14349365,-0.0625,-0.25,0.078125
1695828879156,-0.41333008,-0.89630127,0.16668701,0.453125,0.328125,-0.09375
1695828879196,-0.43432617,-0.8916626,0.15179443,-0.109375,0.171875,0.015625
1695828879236,-0.41235352,-0.9014282,0.15374756,0.53125,-0.015625,-0.140625
1695828879276,-0.41845703,-0.89849854,0.14398193,-0.515625,0.625,0.046875
1695828879316,-0.4152832,-0.91534424,0.16595459,0.109375,-1.28125,-0.171875
1695828879356,-0.4177246,-0.8887329,0.15423584,-0.609375,0.125,-0.078125
1695828879396,-0.41674805,-0.9085083,0.15130615,0.0,-0.25,-0.15625
1695828879436,-0.42504883,-0.90704346,0.15887451,-0.234375,-0.265625,-0.546875
1695828879476,-0.40795898,-0.8880005,0.1593628,-0.484375,0.46875,0.046875
1695828879516,-0.4260254,-0.8994751,0.14447021,-0.546875,0.546875,0.21875
1695828879556,-0.41723633,-0.89556885,0.16204834,-0.5625,0.40625,0.046875
1695828879597,-0.41235352,-0.9024048,0.15570068,-0.25,0.3125,0.078125
1695828879637,-0.41308594,-0.8989868,0.15325928,-0.609375,-0.125,-0.0625
1695828879677,-0.42822266,-0.8945923,0.16033936,-0.609375,-0.1875,-0.15625
1695828879717,-0.41235352,-0.9019165,0.15887451,-0.34375,0.046875,-0.09375
1695828879757,-0.40844727,-0.894104,0.15838623,-0.203125,0.359375,-0.1875
1695828879797,-0.4104004,-0.89849854,0.15594482,-0.5625,0.046875,-0.390625
1695828879837,-0.41210938,-0.90045166,0.1605835,-0.46875,0.078125,-0.078125
1695828879877,-0.41992188,-0.89141846,0.15350342,-0.375,0.09375,0.140625
1695828879917,-0.40795898,-0.8987427,0.16204834,-0.515625,0.203125,-0.25
1695828879957,-0.4086914,-0.8982544,0.1552124,-1.125,0.21875,-0.203125
1695828879997,-0.4267578,-0.913147,0.1642456,-0.640625,-1.359375,0.0
1695828880037,-0.40771484,-0.8755493,0.1515503,-0.734375,0.21875,-0.328125
1695828880077,-0.41796875,-0.8970337,0.15911865,-0.203125,0.78125,0.09375
1695828880117,-0.41235352,-0.9026489,0.16986084,-0.234375,-0.171875,0.09375
1695828880157,-0.4086914,-0.8870239,0.15252686,-0.1875,-0.09375,-0.171875
1695828880197,-0.42041016,-0.892395,0.16375732,-0.109375,0.078125,0.0625
1695828880237,-0.4169922,-0.89190674,0.16351318,-0.1875,0.140625,0.03125
1695828880277,-0.41088867,-0.8994751,0.17010498,0.359375,-0.171875,0.25
1695828880317,-0.41674805,-0.89508057,0.15570068,-0.390625,-0.25,0.109375
1695828880358,-0.41137695,-0.8999634,0.16278076,-0.046875,-0.421875,-0.046875
1695828880398,-0.40429688,-0.9014282,0.16473389,-0.03125,-0.703125,-0.28125
1695828880438,-0.41210938,-0.9019165,0.17108154,-0.640625,-0.375,-0.21875
1695828880478,-0.4189453,-0.9019165,0.15179443,-1.09375,-0.171875,-0.125
1695828880518,-0.4104004,-0.8897095,0.16400146,-0.578125,0.0,-0.109375
1695828880558,-0.41723633,-0.8970337,0.15447998,-0.484375,-0.234375,-0.125
1695828880598,-0.41015625,-0.8945923,0.1564331,-0.5,-0.421875,-0.171875
1695828880638,-0.40844727,-0.9002075,0.17059326,-0.53125,-0.609375,-0.109375
1695828880678,-0.4128418,-0.89801025,0.16912842,-0.59375,-0.140625,-0.265625
1695828880718,-0.42089844,-0.90167236,0.18988037,-0.0625,-2.046875,-0.09375
1695828880758,-0.40039062,-0.878479,0.14813232,-0.515625,-0.90625,-0.078125
1695828880798,-0.41308594,-0.90582275,0.16229248,-0.203125,-0.390625,0.015625
1695828880838,-0.41845703,-0.9138794,0.18133545,-0.3125,-1.0625,-0.234375
1695828880878,-0.4243164,-0.894104,0.152771,-0.953125,0.015625,0.21875
1695828880918,-0.4111328,-0.89312744,0.16229248,-0.734375,-0.296875,-0.1875
1695828880958,-0.41723633,-0.8970337,0.16229248,-0.515625,-1.03125,-0.109375
1695828880998,-0.42041016,-0.89630127,0.1630249,-0.4375,-1.3125,-0.21875
1695828881038,-0.41186523,-0.88604736,0.15570068,-0.5,-0.75,-0.125
1695828881078,-0.40942383,-0.90338135,0.17132568,-0.8125,-0.578125,-0.03125
1695828881119,-0.40551758,-0.9002075,0.1618042,-0.390625,-0.859375,-0.125
1695828881159,-0.4104004,-0.8965454,0.16546631,-0.84375,-0.640625,-0.1875
1695828881199,-0.41845703,-0.8999634,0.1593628,-0.71875,-1.28125,-0.484375
1695828881239,-0.41381836,-0.8855591,0.15911865,-0.796875,-0.171875,-0.328125
1695828881279,-0.41235352,-0.8970337,0.15838623,-0.046875,-0.46875,-0.0625
1695828881319,-0.42041016,-0.89630127,0.16009521,0.390625,-0.4375,-0.140625
1695828881359,-0.4091797,-0.8909302,0.17059326,0.1875,-0.265625,-0.296875
1695828881399,-0.4050293,-0.88897705,0.16156006,0.65625,-0.34375,-0.3125
1695828881439,-0.41918945,-0.90460205,0.1618042,0.484375,-0.34375,0.0
1695828881479,-0.4230957,-0.88726807,0.15570068,1.453125,-0.75,-0.921875
1695828881519,-0.41088867,-0.89801025,0.15985107,0.640625,1.296875,-0.546875
1695828881559,-0.42578125,-0.91656494,0.17767334,0.75,0.015625,-0.90625
1695828881599,-0.4267578,-0.89434814,0.15814209,0.5625,-1.46875,-0.625
1695828881639,-0.42382812,-0.8779907,0.13934326,0.875,-1.171875,-0.640625
1695828881679,-0.4243164,-0.9019165,0.13641357,1.015625,-1.875,-0.796875
1695828881719,-0.4206543,-0.89971924,0.14251709,0.8125,-1.34375,-0.84375
1695828881759,-0.4284668,-0.9126587,0.16741943,-0.046875,-0.703125,-0.484375
1695828881799,-0.42382812,-0.8845825,0.12982178,-0.125,-0.375,-0.421875
1695828881839,-0.41333008,-0.9102173,0.15496826,-0.265625,-0.453125,-0.40625
1695828881880,-0.42211914,-0.8982544,0.1552124,-0.375,-0.296875,-0.046875
1695828881920,-0.41967773,-0.89849854,0.15423584,-0.375,-0.3125,-0.03125
1695828881960,-0.41381836,-0.9011841,0.14520264,-0.171875,-0.390625,-0.234375
1695828882000,-0.42114258,-0.8765259,0.14398193,0.28125,-0.203125,0.0625
1695828882040,-0.43286133,-0.9019165,0.14715576,0.390625,-0.75,0.234375
1695828882080,-0.41918945,-0.8945923,0.1473999,-0.40625,-0.328125,-0.140625
1695828882120,-0.42382812,-0.90045166,0.14764404,-0.34375,-1.6875,0.203125
1695828882160,-0.44555664,-0.90509033,0.13983154,0.53125,-0.078125,0.234375
1695828882200,-0.4260254,-0.8843384,0.13909912,2.03125,0.46875,0.078125
1695828882240,-0.38256836,-0.8777466,0.11883545,1.484375,1.078125,0.765625
1695828882280,-0.41308594,-0.9031372,0.15911865,0.703125,-0.25,0.953125
1695828882320,-0.4350586,-0.9434204,0.15960693,0.078125,-0.78125,-0.109375
1695828882360,-0.41503906,-0.9053345,0.15325928,-0.859375,1.84375,-0.484375
1695828882400,-0.43774414,-0.8982544,0.12176514,-0.875,1.21875,0.4375
1695828882440,-0.4013672,-0.90948486,0.15423584,-1.4375,0.765625,-0.375
1695828882480,-0.45361328,-0.8850708,0.11590576,-0.453125,-1.78125,0.140625
1695828882520,-0.4116211,-0.90167236,0.1329956,-2.125,2.9375,-0.171875
1695828882560,-0.39648438,-0.8867798,0.15252686,-1.78125,1.25,-0.5625
1695828882600,-0.4152832,-0.8792114,0.13812256,-2.046875,1.078125,-0.265625
1695828882641,-0.4104004,-0.9116821,0.1749878,-3.03125,0.40625,-0.671875
1695828882681,-0.4411621,-0.88946533,0.14910889,-1.9375,-0.546875,-0.234375
1695828882721,-0.4404297,-0.87677,0.15814209,-2.078125,1.625,-0.359375
1695828882761,-0.4050293,-0.88531494,0.16497803,-1.953125,-0.875,-0.78125
1695828882801,-0.43481445,-0.88409424,0.14788818,-1.078125,-0.515625,0.1875
1695828882841,-0.39794922,-0.8882446,0.16937256,-0.1875,-1.125,-0.453125
1695828882881,-0.39916992,-0.9182739,0.1864624,-1.734375,-1.109375,-0.109375
1695828882921,-0.41845703,-0.88165283,0.16790771,-0.84375,-0.859375,-0.296875
1695828882961,-0.42895508,-0.8845825,0.16571045,-0.890625,-1.390625,0.65625
1695828883001,-0.41503906,-0.8850708,0.15618896,-0.6875,0.96875,0.53125
1695828883041,-0.42211914,-0.894104,0.16033936,-0.6875,0.203125,0.578125
1695828883081,-0.40771484,-0.8945923,0.16107178,-0.875,-0.734375,0.21875
1695828883121,-0.40698242,-0.90216064,0.17523193,-1.109375,-1.0,-0.125
1695828883161,-0.42407227,-0.8880005,0.18475342,-1.03125,-3.1875,-0.59375
1695828883201,-0.42944336,-0.9216919,0.16888428,-2.78125,-3.140625,-1.09375
1695828883241,-0.4152832,-0.8670044,0.16497803,-2.609375,-2.34375,-0.953125
1695828883281,-0.3947754,-0.88067627,0.16400146,-2.15625,-1.625,-0.328125
1695828883321,-0.4345703,-0.91290283,0.17913818,-2.609375,-1.390625,0.0625
1695828883361,-0.42871094,-0.87335205,0.15765381,-1.046875,-1.234375,-1.078125
1695828883402,-0.39501953,-0.9092407,0.18939209,-1.765625,0.25,-0.8125
1695828883442,-0.41357422,-0.86846924,0.1630249,-0.3125,-0.8125,-0.75
1695828883482,-0.4267578,-0.9011841,0.1954956,-1.015625,-1.296875,-0.453125
1695828883522,-0.44458008,-0.89263916,0.16668701,-0.265625,-0.96875,-0.078125
1695828883562,-0.40283203,-0.88897705,0.1942749,-1.046875,-0.734375,-0.375
1695828883602,-0.42651367,-0.8772583,0.17572021,0.59375,-2.1875,-0.390625
1695828883642,-0.42260742,-0.9002075,0.18011475,-0.25,-2.125,-0.234375
1695828883682,-0.41918945,-0.88287354,0.17034912,-0.609375,-1.03125,-0.75
1695828883722,-0.421875,-0.8621216,0.18963623,0.3125,-2.484375,-0.59375
1695828883762,-0.4375,-0.91363525,0.1762085,-0.453125,-1.71875,-0.34375
1695828883802,-0.43969727,-0.9055786,0.15301514,-0.40625,0.328125,-0.984375
1695828883842,-0.45117188,-0.8789673,0.168396,0.28125,0.046875,-1.34375
1695828883882,-0.4296875,-0.8999634,0.16009521,-0.765625,2.75,0.0625
1695828883922,-0.4182129,-0.8796997,0.1539917,-0.234375,1.5625,-0.203125
1695828883962,-0.44189453,-0.8916626,0.17279053,-0.28125,1.0,-0.328125
1695828884002,-0.45117188,-0.88409424,0.17523193,0.03125,0.609375,0.296875
1695828884042,-0.4099121,-0.892395,0.18084717,-0.296875,1.609375,0.484375
1695828884082,-0.4296875,-0.88360596,0.16595459,-0.703125,1.171875,0.375
1695828884123,-0.41455078,-0.892395,0.19036865,-0.609375,-0.203125,0.171875
