# Sensor type: Thingy
# Activity type: Sitting
# Activity subtype: Normal
# Subject id: s2094705
# Notes: 
timestamp,accel_x,accel_y,accel_z,gyro_x,gyro_y,gyro_z,mag_x,mag_y,mag_z
1695828921202,-0.041992188,-0.8486328,0.5175781,0.25,0.3125,0.0625,0.0,0.0,0.0
1695828921242,-0.040039062,-0.85253906,0.5107422,-0.03125,0.0,-0.125,0.0,0.0,0.0
1695828921282,-0.038085938,-0.84375,0.50097656,0.0625,0.1875,-0.0625,0.0,0.0,0.0
1695828921322,-0.045898438,-0.84765625,0.5214844,0.125,0.375,-0.1875,0.0,0.0,0.0
1695828921362,-0.0390625,-0.8466797,0.5107422,-0.15625,0.3125,0.0625,0.0,0.0,0.0
1695828921402,-0.041992188,-0.8457031,0.5097656,-0.03125,-0.125,-0.125,0.0,0.0,0.0
1695828921442,-0.041015625,-0.8544922,0.5214844,-0.03125,0.0,0.1875,0.0,0.0,0.0
1695828921482,-0.045898438,-0.84277344,0.50683594,-0.46875,-0.1875,0.0625,53.375,-67.75,-76.125
1695828921522,-0.038085938,-0.8496094,0.5058594,0.0,-0.25,-0.3125,0.0,0.0,0.0
1695828921562,-0.038085938,-0.8457031,0.51171875,-0.15625,-0.3125,-0.25,0.0,0.0,0.0
1695828921602,-0.038085938,-0.8535156,0.5058594,0.3125,0.0,-0.0625,0.0,0.0,0.0
1695828921642,-0.041015625,-0.8466797,0.51464844,0.125,-0.0625,-0.0625,0.0,0.0,0.0
1695828921682,-0.034179688,-0.85546875,0.51953125,0.0,0.125,-0.0625,0.0,0.0,0.0
1695828921722,-0.048828125,-0.8496094,0.50390625,-0.34375,0.1875,0.0625,0.0,0.0,0.0
1695828921762,-0.040039062,-0.84375,0.50878906,-0.15625,0.0,-0.1875,0.0,0.0,0.0
1695828921802,-0.038085938,-0.8535156,0.5136719,-0.03125,0.0,0.25,0.0,0.0,0.0
1695828921842,-0.037109375,-0.8613281,0.5097656,-0.21875,-0.0625,0.0,0.0,0.0,0.0
1695828921882,-0.047851562,-0.85253906,0.49609375,-0.15625,-0.125,0.1875,0.0,0.0,0.0
1695828921922,-0.034179688,-0.8564453,0.5078125,0.1875,-0.0625,0.0625,0.0,0.0,0.0
1695828921963,-0.03515625,-0.83984375,0.5175781,-0.28125,0.0625,0.125,53.375,-66.25,-75.8125
1695828922003,-0.048828125,-0.85058594,0.51953125,0.0625,0.25,0.0,0.0,0.0,0.0
1695828922043,-0.038085938,-0.8496094,0.5126953,-0.59375,0.0,0.3125,0.0,0.0,0.0
1695828922083,-0.049804688,-0.8466797,0.52441406,-0.15625,-0.25,0.125,0.0,0.0,0.0
1695828922123,-0.03515625,-0.8496094,0.48632812,-0.03125,-0.3125,-0.0625,0.0,0.0,0.0
1695828922163,-0.048828125,-0.85546875,0.50878906,-0.15625,-0.5,0.0,0.0,0.0,0.0
1695828922203,-0.03515625,-0.8496094,0.5058594,0.1875,0.125,0.0,0.0,0.0,0.0
1695828922243,-0.04296875,-0.84277344,0.50878906,-0.21875,0.0,-0.125,0.0,0.0,0.0
1695828922283,-0.041015625,-0.85058594,0.50878906,0.1875,0.3125,-0.125,0.0,0.0,0.0
1695828922323,-0.037109375,-0.85546875,0.515625,0.0,0.1875,-0.0625,0.0,0.0,0.0
1695828922363,-0.04296875,-0.85253906,0.51171875,0.0,0.25,0.125,0.0,0.0,0.0
1695828922403,-0.041015625,-0.8515625,0.5029297,0.1875,-0.0625,0.0625,0.0,0.0,0.0
1695828922443,-0.04296875,-0.8544922,0.52246094,0.1875,0.0625,0.125,0.0,0.0,0.0
1695828922483,-0.041992188,-0.8535156,0.51953125,0.1875,0.0,0.1875,53.25,-66.875,-74.875
1695828922523,-0.037109375,-0.8457031,0.5205078,0.03125,-0.09375,-0.03125,0.0,0.0,0.0
1695828922563,-0.041992188,-0.84472656,0.51171875,-0.1875,0.21875,0.03125,0.0,0.0,0.0
1695828922603,-0.047851562,-0.8457031,0.5107422,-0.15625,-0.09375,0.09375,0.0,0.0,0.0
1695828922643,-0.04296875,-0.8466797,0.5058594,0.21875,0.15625,-0.03125,0.0,0.0,0.0
1695828922684,-0.037109375,-0.8466797,0.51660156,-0.03125,-0.03125,-0.09375,0.0,0.0,0.0
1695828922724,-0.0390625,-0.84375,0.5078125,0.09375,0.09375,0.09375,0.0,0.0,0.0
1695828922764,-0.048828125,-0.85058594,0.5136719,-0.375,-0.25,0.28125,0.0,0.0,0.0
1695828922804,-0.033203125,-0.85253906,0.52734375,-0.09375,-0.3125,-0.03125,0.0,0.0,0.0
1695828922844,-0.044921875,-0.85546875,0.515625,-0.1875,-0.375,0.21875,0.0,0.0,0.0
1695828922884,-0.038085938,-0.84765625,0.5107422,0.09375,-0.09375,-0.15625,0.0,0.0,0.0
1695828922924,-0.040039062,-0.8496094,0.51660156,0.03125,0.34375,0.03125,0.0,0.0,0.0
1695828922964,-0.04296875,-0.8457031,0.51464844,0.09375,0.21875,0.03125,54.0,-66.5625,-76.5625
1695828923004,-0.036132812,-0.8535156,0.5097656,0.09375,0.15625,0.03125,0.0,0.0,0.0
1695828923044,-0.048828125,-0.8457031,0.5048828,-0.09375,0.15625,0.03125,0.0,0.0,0.0
1695828923084,-0.048828125,-0.84472656,0.5048828,-0.03125,-0.03125,0.09375,0.0,0.0,0.0
1695828923124,-0.037109375,-0.8544922,0.5136719,0.03125,-0.125,-0.03125,0.0,0.0,0.0
1695828923164,-0.032226562,-0.85253906,0.5078125,0.21875,-0.1875,-0.03125,0.0,0.0,0.0
1695828923204,-0.037109375,-0.8496094,0.5078125,-0.03125,-0.03125,0.21875,0.0,0.0,0.0
1695828923244,-0.032226562,-0.8515625,0.50878906,0.09375,0.03125,0.03125,0.0,0.0,0.0
1695828923284,-0.041992188,-0.85839844,0.5097656,-0.15625,0.21875,0.09375,0.0,0.0,0.0
1695828923324,-0.045898438,-0.8457031,0.51464844,-0.09375,0.34375,-0.09375,0.0,0.0,0.0
1695828923364,-0.038085938,-0.8417969,0.51464844,-0.1875,0.03125,-0.15625,0.0,0.0,0.0
1695828923405,-0.036132812,-0.8496094,0.51171875,-0.09375,0.09375,0.09375,0.0,0.0,0.0
1695828923445,-0.0390625,-0.84765625,0.5029297,-0.03125,-0.3125,-0.03125,0.0,0.0,0.0
1695828923485,-0.045898438,-0.8486328,0.5126953,-0.15625,-0.09375,0.21875,53.375,-65.9375,-75.0625
1695828923525,-0.041015625,-0.8486328,0.51464844,-0.1875,-0.25,0.03125,0.0,0.0,0.0
1695828923565,-0.038085938,-0.8486328,0.5048828,-0.03125,-0.09375,-0.03125,0.0,0.0,0.0
1695828923605,-0.038085938,-0.84375,0.5126953,0.09375,-0.09375,-0.03125,0.0,0.0,0.0
1695828923645,-0.041992188,-0.84765625,0.51171875,-0.03125,-0.03125,-0.03125,0.0,0.0,0.0
1695828923685,-0.05078125,-0.8417969,0.5136719,0.03125,0.15625,-0.03125,0.0,0.0,0.0
1695828923725,-0.048828125,-0.8486328,0.50683594,0.03125,-0.03125,0.03125,0.0,0.0,0.0
1695828923765,-0.041015625,-0.85546875,0.51464844,-0.1875,-0.03125,0.03125,0.0,0.0,0.0
1695828923805,-0.041992188,-0.8457031,0.51464844,0.03125,0.03125,0.09375,0.0,0.0,0.0
1695828923845,-0.041992188,-0.8544922,0.51171875,0.09375,-0.125,0.15625,0.0,0.0,0.0
1695828923885,-0.045898438,-0.8417969,0.5214844,0.03125,-0.03125,0.21875,0.0,0.0,0.0
1695828923925,-0.038085938,-0.8496094,0.5175781,0.21875,0.03125,0.21875,0.0,0.0,0.0
1695828923965,-0.036132812,-0.8466797,0.51660156,0.03125,0.09375,0.21875,53.375,-67.75,-75.0625
1695828924005,-0.0390625,-0.8408203,0.5205078,0.03125,0.21875,0.09375,0.0,0.0,0.0
1695828924045,-0.036132812,-0.8564453,0.5126953,-0.09375,0.21875,0.15625,0.0,0.0,0.0
1695828924085,-0.032226562,-0.8496094,0.50097656,0.03125,0.21875,0.09375,0.0,0.0,0.0
1695828924126,-0.036132812,-0.8466797,0.50878906,-0.03125,0.03125,0.15625,0.0,0.0,0.0
1695828924166,-0.046875,-0.8535156,0.50878906,-0.03125,-0.09375,0.21875,0.0,0.0,0.0
1695828924206,-0.038085938,-0.8486328,0.50390625,-0.09375,-0.375,0.09375,0.0,0.0,0.0
1695828924246,-0.049804688,-0.8544922,0.51464844,-0.25,-0.3125,0.28125,0.0,0.0,0.0
1695828924286,-0.041992188,-0.85546875,0.5175781,-0.3125,-0.375,0.34375,0.0,0.0,0.0
1695828924326,-0.0390625,-0.85058594,0.5048828,-0.03125,-0.4375,0.03125,0.0,0.0,0.0
1695828924366,-0.0390625,-0.8515625,0.5048828,-0.3125,-0.1875,0.15625,0.0,0.0,0.0
1695828924406,-0.041015625,-0.8535156,0.50878906,-0.03125,-0.09375,0.15625,0.0,0.0,0.0
1695828924446,-0.048828125,-0.84375,0.4970703,-0.15625,0.09375,-0.03125,0.0,0.0,0.0
1695828924486,-0.044921875,-0.84765625,0.51953125,0.09375,-0.09375,-0.09375,52.375,-67.0,-75.375
1695828924526,-0.047851562,-0.84472656,0.5107422,-0.09375,-0.09375,0.09375,0.0,0.0,0.0
1695828924566,-0.034179688,-0.8564453,0.51171875,0.09375,-0.09375,-0.03125,0.0,0.0,0.0
1695828924606,-0.041015625,-0.85058594,0.5107422,-0.15625,-0.09375,0.21875,0.0,0.0,0.0
1695828924646,-0.036132812,-0.8496094,0.5214844,-0.09375,-0.3125,0.15625,0.0,0.0,0.0
1695828924686,-0.041015625,-0.85253906,0.49316406,-0.03125,-0.03125,0.21875,0.0,0.0,0.0
1695828924726,-0.05078125,-0.8486328,0.52246094,-0.03125,-0.09375,0.15625,0.0,0.0,0.0
1695828924766,-0.046875,-0.84277344,0.515625,0.09375,0.28125,0.09375,0.0,0.0,0.0
1695828924806,-0.040039062,-0.8515625,0.50683594,0.03125,0.34375,0.09375,0.0,0.0,0.0
1695828924847,-0.046875,-0.85546875,0.5058594,0.03125,0.34375,-0.03125,0.0,0.0,0.0
1695828924887,-0.045898438,-0.84765625,0.50878906,0.03125,0.09375,0.15625,0.0,0.0,0.0
1695828924927,-0.038085938,-0.84765625,0.5136719,-0.03125,-0.125,0.03125,0.0,0.0,0.0
1695828924967,-0.046875,-0.8535156,0.51660156,-0.15625,-0.125,0.09375,53.5625,-67.625,-74.875
1695828925007,-0.034179688,-0.8457031,0.49804688,-0.3125,-0.3125,0.15625,0.0,0.0,0.0
1695828925047,-0.036132812,-0.84375,0.515625,-0.25,-0.375,-0.09375,0.0,0.0,0.0
1695828925087,-0.041015625,-0.8544922,0.51171875,-0.15625,-0.09375,0.03125,0.0,0.0,0.0
1695828925127,-0.041992188,-0.84472656,0.5126953,0.03125,0.21875,-0.15625,0.0,0.0,0.0
1695828925167,-0.0390625,-0.8574219,0.5097656,-0.03125,0.21875,-0.03125,0.0,0.0,0.0
1695828925207,-0.044921875,-0.8544922,0.5253906,0.15625,0.15625,-0.21875,0.0,0.0,0.0
1695828925247,-0.041015625,-0.8486328,0.5048828,-0.09375,0.03125,0.03125,0.0,0.0,0.0
1695828925287,-0.046875,-0.84277344,0.50683594,0.03125,0.03125,-0.09375,0.0,0.0,0.0
1695828925327,-0.03515625,-0.84277344,0.51464844,-0.1875,0.03125,0.09375,0.0,0.0,0.0
1695828925367,-0.048828125,-0.85253906,0.49414062,-0.09375,-0.1875,0.03125,0.0,0.0,0.0
1695828925407,-0.041015625,-0.8496094,0.50878906,-0.03125,-0.1875,-0.03125,0.0,0.0,0.0
1695828925447,-0.032226562,-0.8466797,0.5126953,0.21875,-0.125,0.09375,0.0,0.0,0.0
1695828925487,-0.04296875,-0.84277344,0.4970703,-0.09375,0.21875,0.03125,53.125,-67.75,-75.0625
1695828925527,-0.041992188,-0.85253906,0.51171875,0.15625,0.21875,-0.09375,0.0,0.0,0.0
1695828925568,-0.041992188,-0.8457031,0.52441406,0.15625,0.15625,-0.03125,0.0,0.0,0.0
1695828925608,-0.038085938,-0.84375,0.5136719,0.03125,0.15625,0.03125,0.0,0.0,0.0
1695828925648,-0.04296875,-0.84765625,0.5078125,0.03125,-0.125,-0.03125,0.0,0.0,0.0
1695828925688,-0.044921875,-0.85253906,0.51171875,-0.25,-0.03125,0.28125,0.0,0.0,0.0
1695828925728,-0.046875,-0.84472656,0.49316406,-0.1875,-0.25,0.03125,0.0,0.0,0.0
1695828925768,-0.047851562,-0.85546875,0.50878906,-0.1875,-0.25,0.15625,0.0,0.0,0.0
1695828925808,-0.034179688,-0.8574219,0.5048828,0.03125,-0.1875,0.03125,0.0,0.0,0.0
1695828925848,-0.04296875,-0.85058594,0.51660156,-0.1875,-0.03125,0.09375,0.0,0.0,0.0
1695828925888,-0.038085938,-0.8486328,0.51171875,0.03125,0.03125,-0.09375,0.0,0.0,0.0
1695828925928,-0.048828125,-0.8544922,0.50390625,-0.09375,-0.03125,-0.15625,0.0,0.0,0.0
1695828925968,-0.047851562,-0.84765625,0.49804688,-0.03125,-0.03125,-0.09375,52.375,-68.0625,-75.375
1695828926008,-0.044921875,-0.8466797,0.5214844,-0.15625,-0.09375,-0.03125,0.0,0.0,0.0
1695828926048,-0.0390625,-0.85058594,0.5078125,-0.03125,-0.09375,0.03125,0.0,0.0,0.0
1695828926088,-0.041015625,-0.84765625,0.515625,0.21875,-0.125,-0.09375,0.0,0.0,0.0
1695828926128,-0.041015625,-0.8515625,0.5126953,-0.15625,-0.125,0.03125,0.0,0.0,0.0
1695828926168,-0.03515625,-0.8564453,0.50878906,0.15625,0.03125,-0.03125,0.0,0.0,0.0
1695828926208,-0.044921875,-0.84277344,0.515625,-0.15625,-0.09375,0.09375,0.0,0.0,0.0
1695828926248,-0.04296875,-0.8496094,0.52246094,-0.03125,0.09375,0.03125,0.0,0.0,0.0
1695828926289,-0.041992188,-0.8466797,0.5126953,-0.09375,0.40625,-0.09375,0.0,0.0,0.0
1695828926329,-0.046875,-0.85058594,0.5136719,-0.09375,0.03125,-0.09375,0.0,0.0,0.0
1695828926369,-0.041992188,-0.8466797,0.5126953,-0.25,0.09375,0.15625,0.0,0.0,0.0
1695828926409,-0.046875,-0.85546875,0.5126953,0.03125,0.15625,0.15625,0.0,0.0,0.0
1695828926449,-0.045898438,-0.8457031,0.4970703,-0.25,-0.15625,0.40625,0.0,0.0,0.0
1695828926489,-0.041992188,-0.8486328,0.50683594,0.125,-0.21875,-0.0625,52.8125,-65.8125,-75.1875
1695828926529,-0.04296875,-0.85253906,0.51660156,-0.25,-0.21875,0.0625,0.0,0.0,0.0
1695828926569,-0.040039062,-0.8535156,0.5058594,0.125,-0.09375,-0.125,0.0,0.0,0.0
1695828926609,-0.040039062,-0.8466797,0.50683594,-0.125,0.15625,0.0,0.0,0.0,0.0
1695828926649,-0.046875,-0.8486328,0.5029297,-0.0625,-0.03125,-0.1875,0.0,0.0,0.0
1695828926689,-0.0390625,-0.8496094,0.5253906,0.0,0.09375,-0.0625,0.0,0.0,0.0
1695828926729,-0.04296875,-0.8486328,0.51464844,-0.0625,-0.03125,-0.0625,0.0,0.0,0.0
1695828926769,-0.044921875,-0.8515625,0.5136719,-0.125,0.03125,0.125,0.0,0.0,0.0
1695828926809,-0.038085938,-0.8496094,0.5136719,0.0,-0.09375,0.0,0.0,0.0,0.0
1695828926849,-0.049804688,-0.8486328,0.5048828,0.0,-0.28125,0.0625,0.0,0.0,0.0
1695828926889,-0.043945312,-0.84375,0.5,0.4375,-0.09375,0.125,0.0,0.0,0.0
1695828926929,-0.043945312,-0.83984375,0.49804688,-0.1875,-0.15625,0.125,0.0,0.0,0.0
1695828926969,-0.051757812,-0.8535156,0.51464844,0.125,0.40625,0.0625,52.375,-65.6875,-74.75
1695828927010,-0.044921875,-0.8496094,0.5185547,-0.125,0.15625,-0.125,0.0,0.0,0.0
1695828927050,-0.045898438,-0.8457031,0.5048828,0.125,0.34375,-0.0625,0.0,0.0,0.0
1695828927090,-0.049804688,-0.85058594,0.49804688,-0.125,-0.03125,0.0,0.0,0.0,0.0
1695828927130,-0.040039062,-0.84375,0.5078125,0.0,-0.09375,0.0625,0.0,0.0,0.0
1695828927170,-0.040039062,-0.84765625,0.515625,-0.1875,-0.09375,0.125,0.0,0.0,0.0
1695828927210,-0.040039062,-0.8535156,0.49902344,-0.25,-0.03125,0.125,0.0,0.0,0.0
1695828927250,-0.041992188,-0.8515625,0.5234375,-0.1875,-0.28125,-0.0625,0.0,0.0,0.0
1695828927290,-0.032226562,-0.85546875,0.5097656,0.0,-0.09375,-0.0625,0.0,0.0,0.0
1695828927330,-0.049804688,-0.84375,0.5185547,0.0,-0.15625,-0.0625,0.0,0.0,0.0
1695828927370,-0.034179688,-0.85058594,0.50878906,-0.0625,0.09375,-0.125,0.0,0.0,0.0
1695828927410,-0.051757812,-0.8535156,0.5126953,0.125,-0.09375,-0.125,0.0,0.0,0.0
1695828927450,-0.040039062,-0.8330078,0.52246094,-0.125,-0.21875,0.0,0.0,0.0,0.0
1695828927490,-0.04296875,-0.85253906,0.51660156,0.0,-0.15625,0.0,53.5625,-66.875,-74.875
1695828927530,-0.044921875,-0.84472656,0.4970703,0.0,-0.15625,0.0,0.0,0.0,0.0
1695828927570,-0.038085938,-0.8574219,0.515625,0.0625,-0.15625,0.0,0.0,0.0,0.0
1695828927610,-0.038085938,-0.84375,0.5097656,0.0625,-0.09375,0.1875,0.0,0.0,0.0
1695828927650,-0.037109375,-0.85546875,0.5048828,0.0625,0.09375,0.1875,0.0,0.0,0.0
1695828927690,-0.044921875,-0.85253906,0.5175781,0.125,0.09375,0.25,0.0,0.0,0.0
1695828927731,-0.041992188,-0.85253906,0.5078125,0.375,0.34375,-0.125,0.0,0.0,0.0
1695828927771,-0.03515625,-0.8466797,0.5136719,0.0625,0.28125,0.0,0.0,0.0,0.0
1695828927811,-0.04296875,-0.84765625,0.5048828,0.25,0.21875,0.125,0.0,0.0,0.0
1695828927851,-0.04296875,-0.84277344,0.50097656,0.0625,-0.03125,0.1875,0.0,0.0,0.0
1695828927891,-0.045898438,-0.84765625,0.5029297,0.0,-0.28125,0.0625,0.0,0.0,0.0
1695828927931,-0.036132812,-0.8535156,0.51464844,0.0,-0.15625,0.125,0.0,0.0,0.0
1695828927971,-0.040039062,-0.8544922,0.5,-0.25,-0.09375,0.25,53.125,-67.0,-76.375
1695828928011,-0.046875,-0.8515625,0.5029297,-0.125,-0.53125,0.0,0.0,0.0,0.0
1695828928051,-0.041992188,-0.8535156,0.5126953,-0.125,-0.28125,0.125,0.0,0.0,0.0
1695828928091,-0.036132812,-0.84765625,0.4970703,0.0,-0.15625,0.125,0.0,0.0,0.0
1695828928131,-0.040039062,-0.85058594,0.50878906,0.125,0.15625,0.0,0.0,0.0,0.0
1695828928171,-0.0390625,-0.84375,0.51171875,0.0,-0.09375,0.0625,0.0,0.0,0.0
1695828928211,-0.05078125,-0.85253906,0.5,-0.125,-0.09375,0.0,0.0,0.0,0.0
1695828928251,-0.0390625,-0.84375,0.51464844,-0.125,-0.03125,0.125,0.0,0.0,0.0
1695828928291,-0.041992188,-0.85058594,0.50878906,-0.0625,-0.21875,-0.0625,0.0,0.0,0.0
1695828928331,-0.046875,-0.8466797,0.51660156,-0.0625,-0.28125,0.0625,0.0,0.0,0.0
1695828928371,-0.044921875,-0.84277344,0.49804688,0.0,-0.28125,0.125,0.0,0.0,0.0
1695828928411,-0.029296875,-0.8496094,0.5029297,0.125,-0.15625,0.0625,0.0,0.0,0.0
1695828928452,-0.041015625,-0.8408203,0.50097656,-0.25,-0.28125,-0.0625,0.0,0.0,0.0
1695828928492,-0.038085938,-0.8496094,0.5078125,0.0625,0.28125,-0.1875,54.875,-67.0,-75.0625
1695828928532,-0.048828125,-0.8535156,0.50390625,-0.375,-0.03125,-0.125,0.0,0.0,0.0
1695828928572,-0.041015625,-0.8515625,0.5126953,-0.125,-0.09375,-0.125,0.0,0.0,0.0
1695828928612,-0.05078125,-0.85058594,0.52246094,-0.0625,-0.34375,-0.0625,0.0,0.0,0.0
1695828928652,-0.053710938,-0.85253906,0.5107422,0.0,-0.03125,-0.125,0.0,0.0,0.0
1695828928692,-0.045898438,-0.8496094,0.5029297,0.375,0.03125,0.125,0.0,0.0,0.0
1695828928732,-0.04296875,-0.85253906,0.5136719,0.8125,-0.03125,0.0625,0.0,0.0,0.0
1695828928772,-0.047851562,-0.84277344,0.5048828,0.90625,0.09375,0.1875,0.0,0.0,0.0
1695828928812,-0.047851562,-0.8486328,0.5107422,0.90625,0.03125,0.1875,0.0,0.0,0.0
1695828928852,-0.045898438,-0.8466797,0.51953125,0.6875,0.15625,0.0,0.0,0.0,0.0
1695828928892,-0.04296875,-0.84277344,0.4892578,-0.25,0.09375,0.1875,0.0,0.0,0.0
1695828928932,-0.041992188,-0.85058594,0.5107422,-0.65625,-0.03125,-0.25,0.0,0.0,0.0
1695828928972,-0.03515625,-0.8417969,0.5048828,-1.21875,0.28125,-0.1875,53.25,-65.375,-76.5625
1695828929012,-0.043945312,-0.85253906,0.51953125,-1.15625,-0.09375,-0.3125,0.0,0.0,0.0
1695828929052,-0.04296875,-0.8544922,0.50390625,-0.59375,-0.59375,-0.25,0.0,0.0,0.0
1695828929092,-0.049804688,-0.84472656,0.50878906,-0.1875,-0.40625,-0.25,0.0,0.0,0.0
1695828929132,-0.038085938,-0.85253906,0.52246094,0.125,-0.09375,-0.0625,0.0,0.0,0.0
1695828929172,-0.041992188,-0.8457031,0.5214844,0.5625,0.03125,-0.125,0.0,0.0,0.0
1695828929213,-0.043945312,-0.8496094,0.51171875,0.4375,0.03125,-0.25,0.0,0.0,0.0
1695828929253,-0.043945312,-0.8564453,0.515625,0.3125,0.40625,-0.125,0.0,0.0,0.0
1695828929293,-0.038085938,-0.84375,0.5175781,0.25,0.28125,-0.0625,0.0,0.0,0.0
1695828929333,-0.047851562,-0.8535156,0.49902344,0.5,0.28125,0.0625,0.0,0.0,0.0
1695828929373,-0.034179688,-0.8564453,0.5175781,0.375,0.21875,-0.0625,0.0,0.0,0.0
1695828929413,-0.041015625,-0.8457031,0.50683594,0.0625,0.09375,0.1875,0.0,0.0,0.0
1695828929453,-0.049804688,-0.85058594,0.51953125,0.3125,-0.40625,0.0,0.0,0.0,0.0
1695828929493,-0.049804688,-0.8564453,0.5126953,0.0625,-0.09375,-0.1875,53.5625,-65.8125,-74.625
1695828929533,-0.044921875,-0.8544922,0.5107422,0.375,-0.21875,-0.0625,0.0,0.0,0.0
1695828929573,-0.041992188,-0.84472656,0.5253906,-0.0625,-0.03125,0.0,0.0,0.0,0.0
1695828929613,-0.03515625,-0.8515625,0.50878906,-0.59375,0.21875,-0.25,0.0,0.0,0.0
1695828929653,-0.04296875,-0.8457031,0.49414062,-0.96875,0.28125,-0.1875,0.0,0.0,0.0
1695828929693,-0.041015625,-0.85253906,0.51464844,0.0,0.09375,-0.4375,0.0,0.0,0.0
1695828929733,-0.0390625,-0.8496094,0.49902344,0.0625,0.15625,-0.25,0.0,0.0,0.0
1695828929773,-0.044921875,-0.8574219,0.51660156,0.375,-0.09375,0.0,0.0,0.0,0.0
1695828929813,-0.047851562,-0.8515625,0.5126953,0.3125,-0.21875,0.0,0.0,0.0,0.0
1695828929853,-0.041992188,-0.8515625,0.49414062,0.0,-0.09375,0.0625,0.0,0.0,0.0
1695828929893,-0.041015625,-0.85253906,0.50683594,0.5,0.15625,-0.0625,0.0,0.0,0.0
1695828929934,-0.041992188,-0.84375,0.4970703,0.4375,0.21875,-0.125,0.0,0.0,0.0
1695828929974,-0.04296875,-0.85253906,0.5048828,0.375,0.65625,-0.25,51.625,-66.6875,-74.3125
1695828930014,-0.045898438,-0.8408203,0.52734375,0.625,0.28125,-0.0625,0.0,0.0,0.0
1695828930054,-0.046875,-0.8359375,0.5136719,0.0625,0.21875,-0.0625,0.0,0.0,0.0
1695828930094,-0.03515625,-0.8515625,0.5078125,-0.3125,0.28125,-0.0625,0.0,0.0,0.0
1695828930134,-0.05078125,-0.84472656,0.51953125,-0.25,-0.15625,0.0,0.0,0.0,0.0
1695828930174,-0.044921875,-0.8564453,0.5048828,-0.375,-0.34375,-0.3125,0.0,0.0,0.0
1695828930214,-0.041015625,-0.8486328,0.5097656,-0.3125,-0.09375,-0.125,0.0,0.0,0.0
1695828930254,-0.038085938,-0.85546875,0.50390625,0.125,-0.09375,-0.0625,0.0,0.0,0.0
1695828930294,-0.05078125,-0.8486328,0.50097656,0.4375,0.09375,-0.125,0.0,0.0,0.0
1695828930334,-0.048828125,-0.85058594,0.51953125,0.5,0.21875,0.0,0.0,0.0,0.0
1695828930374,-0.041015625,-0.8486328,0.5078125,0.3125,-0.03125,0.0,0.0,0.0,0.0
1695828930414,-0.033203125,-0.8515625,0.5019531,0.0625,0.15625,0.0,0.0,0.0,0.0
1695828930454,-0.043945312,-0.86035156,0.49902344,0.0,0.03125,0.0,0.0,0.0,0.0
1695828930494,-0.04296875,-0.8496094,0.4951172,0.0,0.03125,-0.0625,53.375,-66.6875,-75.0625
1695828930534,-0.041992188,-0.8535156,0.5126953,-0.1875,-0.09375,-0.0625,0.0,0.0,0.0
1695828930574,-0.049804688,-0.8496094,0.50390625,-0.125,0.03125,0.0,0.0,0.0,0.0
1695828930614,-0.055664062,-0.84765625,0.5058594,0.25,0.09375,0.125,0.0,0.0,0.0
1695828930655,-0.04296875,-0.85546875,0.51171875,0.125,0.21875,-0.25,0.0,0.0,0.0
1695828930695,-0.049804688,-0.84765625,0.49902344,0.125,0.21875,-0.125,0.0,0.0,0.0
1695828930735,-0.040039062,-0.8515625,0.5058594,0.375,0.09375,-0.0625,0.0,0.0,0.0
1695828930775,-0.0390625,-0.84472656,0.5078125,0.1875,-0.03125,-0.0625,0.0,0.0,0.0
1695828930815,-0.015625,-0.8515625,0.5107422,0.0,0.59375,-0.0625,0.0,0.0,0.0
1695828930855,-0.0146484375,-0.8515625,0.49902344,0.0625,0.40625,-0.125,0.0,0.0,0.0
1695828930895,-0.022460938,-0.86035156,0.5107422,0.125,-0.21875,-0.375,0.0,0.0,0.0
1695828930935,-0.0068359375,-0.8515625,0.5029297,0.0,-0.28125,0.125,0.0,0.0,0.0
1695828930975,-0.0068359375,-0.8564453,0.5048828,0.25,-0.34375,0.0625,0.0,0.0,0.0
1695828931015,-0.005859375,-0.8515625,0.49609375,0.0625,0.34375,-0.125,0.0,0.0,0.0
1695828931055,-0.01171875,-0.8623047,0.5107422,0.5,0.21875,-0.0625,0.0,0.0,0.0
1695828931095,-0.015625,-0.85253906,0.5048828,-0.0625,0.40625,0.125,54.125,-65.9375,-74.3125
1695828931135,-0.013671875,-0.8486328,0.50390625,0.4375,0.21875,-0.1875,0.0,0.0,0.0
1695828931175,-0.0146484375,-0.85546875,0.51660156,0.25,-0.09375,-0.125,0.0,0.0,0.0
1695828931215,-0.015625,-0.8544922,0.50390625,0.0625,-0.21875,0.0625,0.0,0.0,0.0
1695828931255,-0.0126953125,-0.85058594,0.50390625,0.25,-0.40625,0.125,0.0,0.0,0.0
1695828931295,-0.00390625,-0.8544922,0.5019531,0.1875,0.03125,-0.0625,0.0,0.0,0.0
1695828931335,-0.009765625,-0.85546875,0.48828125,-0.5,0.15625,-0.0625,0.0,0.0,0.0
1695828931376,-0.0068359375,-0.8720703,0.5,0.0,0.09375,0.0,0.0,0.0,0.0
1695828931416,-0.0126953125,-0.8535156,0.5029297,-0.0625,-0.21875,0.125,0.0,0.0,0.0
1695828931456,-0.015625,-0.86328125,0.5029297,0.1875,-0.34375,0.25,0.0,0.0,0.0
1695828931496,-0.01171875,-0.85253906,0.50097656,0.1875,0.03125,0.125,0.0,0.0,0.0
1695828931536,-0.017578125,-0.8564453,0.5029297,0.0625,-0.03125,0.0625,0.0,0.0,0.0
1695828931576,-0.013671875,-0.8613281,0.50390625,0.1875,-0.03125,-0.1875,53.375,-66.6875,-73.25
1695828931616,-0.0087890625,-0.8564453,0.5019531,-0.125,0.09375,-0.125,0.0,0.0,0.0
1695828931656,-0.015625,-0.8652344,0.50683594,0.0625,0.09375,-0.25,0.0,0.0,0.0
1695828931696,-0.020507812,-0.85058594,0.51464844,0.375,-0.09375,0.0,0.0,0.0,0.0
1695828931736,-0.0029296875,-0.8613281,0.50097656,0.5625,-0.03125,0.0625,0.0,0.0,0.0
1695828931776,-0.01171875,-0.8564453,0.5058594,0.25,-0.21875,0.40625,0.0,0.0,0.0
1695828931816,-0.0126953125,-0.8544922,0.5078125,0.1875,0.21875,0.3125,0.0,0.0,0.0
1695828931856,-0.0107421875,-0.85058594,0.50390625,0.4375,0.03125,0.375,0.0,0.0,0.0
1695828931896,-0.013671875,-0.85058594,0.50097656,-0.25,-0.09375,0.3125,0.0,0.0,0.0
1695828931936,-0.0234375,-0.8515625,0.5019531,-0.1875,-0.21875,0.125,0.0,0.0,0.0
1695828931976,-0.017578125,-0.8486328,0.52441406,-0.1875,-0.09375,-0.25,0.0,0.0,0.0
1695828932016,-0.0087890625,-0.86621094,0.50683594,-0.1875,-0.15625,-0.375,0.0,0.0,0.0
1695828932056,-0.005859375,-0.85839844,0.50097656,0.0625,0.03125,-0.125,54.875,-66.25,-73.6875
1695828932097,-0.018554688,-0.859375,0.5019531,0.125,-0.34375,0.0625,0.0,0.0,0.0
1695828932137,-0.01953125,-0.8544922,0.5048828,0.0625,-0.03125,0.0625,0.0,0.0,0.0
1695828932177,-0.009765625,-0.8652344,0.5058594,0.375,0.09375,0.3125,0.0,0.0,0.0
1695828932217,-0.016601562,-0.85546875,0.50683594,0.0625,0.15625,0.0,0.0,0.0,0.0
1695828932257,-0.013671875,-0.8515625,0.4970703,-0.1875,0.34375,0.1875,0.0,0.0,0.0
1695828932297,-0.005859375,-0.8535156,0.50683594,-0.1875,-0.03125,0.0,0.0,0.0,0.0
1695828932337,-0.01953125,-0.85546875,0.51171875,0.1875,0.03125,-0.25,0.0,0.0,0.0
1695828932377,-0.01171875,-0.85839844,0.5078125,0.125,0.03125,0.0,0.0,0.0,0.0
1695828932417,-0.026367188,-0.8613281,0.515625,0.0,-0.09375,0.375,0.0,0.0,0.0
1695828932457,-0.00390625,-0.8466797,0.4951172,-0.125,-0.15625,0.375,0.0,0.0,0.0
1695828932497,-0.0078125,-0.85253906,0.49609375,0.125,0.21875,-0.0625,0.0,0.0,0.0
1695828932537,-0.025390625,-0.8515625,0.50390625,0.25,0.03125,0.3125,0.0,0.0,0.0
1695828932577,-0.009765625,-0.8544922,0.5048828,0.625,-0.03125,0.25,54.625,-66.5625,-73.875
1695828932617,-0.009765625,-0.8515625,0.50390625,0.375,0.28125,0.0,0.0,0.0,0.0
1695828932657,-0.0126953125,-0.85058594,0.51660156,-0.125,0.15625,-0.125,0.0,0.0,0.0
1695828932697,-0.013671875,-0.85253906,0.50390625,0.0625,-0.09375,0.0625,0.0,0.0,0.0
1695828932737,-0.0146484375,-0.8574219,0.51171875,-0.25,-0.03125,0.0625,0.0,0.0,0.0
1695828932777,-0.0126953125,-0.85253906,0.5058594,-0.125,-0.46875,0.1875,0.0,0.0,0.0
1695828932818,-0.01171875,-0.8515625,0.50683594,0.0,-0.28125,0.25,0.0,0.0,0.0
1695828932858,-0.0146484375,-0.84765625,0.50097656,0.1875,0.15625,0.1875,0.0,0.0,0.0
1695828932898,-0.0107421875,-0.85546875,0.5029297,-0.0625,-0.03125,0.1875,0.0,0.0,0.0
1695828932938,-0.018554688,-0.8535156,0.5019531,0.5,0.15625,0.125,0.0,0.0,0.0
1695828932978,-0.015625,-0.8623047,0.49316406,0.5,0.15625,-0.125,0.0,0.0,0.0
1695828933018,-0.013671875,-0.859375,0.51464844,0.1875,0.34375,-0.0625,0.0,0.0,0.0
1695828933058,-0.016601562,-0.85546875,0.5136719,-0.3125,-0.09375,0.25,54.125,-67.4375,-73.6875
1695828933098,-0.026367188,-0.8613281,0.50683594,0.125,-0.59375,0.65625,0.0,0.0,0.0
1695828933138,-0.016601562,-0.84765625,0.51464844,0.0625,-0.34375,0.1875,0.0,0.0,0.0
1695828933178,-0.0146484375,-0.8515625,0.50683594,0.0,0.03125,0.125,0.0,0.0,0.0
1695828933218,-0.01171875,-0.8466797,0.49804688,-0.90625,-0.34375,0.0625,0.0,0.0,0.0
1695828933258,-0.01171875,-0.8535156,0.50878906,-0.4375,-0.03125,0.0625,0.0,0.0,0.0
1695828933298,-0.015625,-0.85839844,0.49902344,-0.375,0.09375,-0.125,0.0,0.0,0.0
1695828933338,-0.01953125,-0.8535156,0.5029297,0.0625,0.15625,0.125,0.0,0.0,0.0
1695828933378,-0.018554688,-0.85546875,0.5107422,-0.03125,-0.28125,-0.1875,0.0,0.0,0.0
1695828933418,-0.015625,-0.85839844,0.51660156,0.03125,-0.03125,0.0625,0.0,0.0,0.0
1695828933458,-0.0107421875,-0.85839844,0.5058594,-0.03125,-0.15625,0.0,0.0,0.0,0.0
1695828933498,-0.020507812,-0.859375,0.5019531,0.15625,0.21875,-0.125,0.0,0.0,0.0
1695828933539,-0.01171875,-0.85253906,0.5058594,-0.09375,0.03125,-0.0625,0.0,0.0,0.0
1695828933579,-0.0078125,-0.8457031,0.5019531,0.03125,0.21875,0.125,54.4375,-66.6875,-73.6875
1695828933619,-0.013671875,-0.8486328,0.49902344,-0.09375,-0.03125,-0.1875,0.0,0.0,0.0
1695828933659,-0.022460938,-0.859375,0.49804688,0.03125,0.15625,-0.25,0.0,0.0,0.0
1695828933699,-0.017578125,-0.85058594,0.50878906,0.03125,0.09375,-0.125,0.0,0.0,0.0
1695828933739,-0.00390625,-0.8496094,0.5097656,0.09375,-0.03125,-0.0625,0.0,0.0,0.0
1695828933779,-0.0146484375,-0.8535156,0.4873047,-0.03125,0.03125,-0.0625,0.0,0.0,0.0
1695828933819,-0.0107421875,-0.8623047,0.49316406,0.3125,0.09375,-0.0625,0.0,0.0,0.0
1695828933859,-0.021484375,-0.8574219,0.5029297,0.3125,0.15625,-0.3125,0.0,0.0,0.0
1695828933899,-0.015625,-0.8515625,0.5136719,0.03125,0.21875,-0.4375,0.0,0.0,0.0
1695828933939,-0.01953125,-0.8466797,0.50390625,0.28125,0.21875,-0.375,0.0,0.0,0.0
1695828933979,-0.013671875,-0.85058594,0.5078125,0.21875,-0.03125,-0.125,0.0,0.0,0.0
1695828934019,-0.01953125,-0.8496094,0.49804688,0.15625,-0.03125,-0.125,0.0,0.0,0.0
1695828934059,-0.018554688,-0.8466797,0.5,0.15625,-0.15625,0.0,55.5,-65.9375,-75.0625
1695828934099,-0.0126953125,-0.85058594,0.5,0.09375,0.03125,0.0,0.0,0.0,0.0
1695828934139,-0.015625,-0.8574219,0.50097656,0.21875,-0.03125,-0.125,0.0,0.0,0.0
1695828934179,-0.013671875,-0.8564453,0.5136719,0.09375,0.21875,-0.125,0.0,0.0,0.0
1695828934219,-0.0029296875,-0.859375,0.5107422,0.09375,0.03125,-0.3125,0.0,0.0,0.0
1695828934260,-0.0126953125,-0.8564453,0.5019531,-0.09375,-0.09375,0.0,0.0,0.0,0.0
1695828934300,-0.0068359375,-0.85058594,0.5097656,0.09375,0.09375,-0.4375,0.0,0.0,0.0
1695828934340,-0.0126953125,-0.8574219,0.50390625,-0.15625,-0.03125,-0.1875,0.0,0.0,0.0
1695828934380,-0.013671875,-0.8535156,0.5058594,-0.09375,-0.34375,0.0,0.0,0.0,0.0
1695828934420,-0.013671875,-0.8544922,0.50390625,-0.40625,-0.09375,-0.125,0.0,0.0,0.0
1695828934460,-0.01953125,-0.8613281,0.5029297,-0.03125,-0.09375,-0.0625,0.0,0.0,0.0
1695828934500,-0.020507812,-0.8544922,0.5078125,0.4375,-0.03125,-0.125,0.0,0.0,0.0
1695828934540,-0.009765625,-0.8496094,0.51464844,0.09375,-0.21875,-0.25,0.0,0.0,0.0
1695828934580,-0.0146484375,-0.84277344,0.5078125,0.03125,0.34375,-0.3125,54.4375,-65.9375,-73.6875
1695828934620,-0.020507812,-0.8515625,0.51464844,0.21875,0.15625,-0.25,0.0,0.0,0.0
1695828934660,-0.01171875,-0.8515625,0.50683594,-0.03125,-0.03125,-0.125,0.0,0.0,0.0
1695828934700,-0.017578125,-0.84375,0.5058594,-0.28125,-0.15625,-0.125,0.0,0.0,0.0
1695828934740,-0.016601562,-0.85058594,0.5048828,-0.15625,-0.21875,0.0,0.0,0.0,0.0
1695828934780,-0.016601562,-0.86035156,0.5097656,-0.09375,-0.15625,-0.0625,0.0,0.0,0.0
1695828934820,-0.0107421875,-0.8574219,0.515625,-0.09375,-0.09375,-0.1875,0.0,0.0,0.0
1695828934860,-0.0126953125,-0.8535156,0.5175781,-0.15625,0.03125,-0.25,0.0,0.0,0.0
1695828934900,-0.018554688,-0.86035156,0.50878906,-0.15625,-0.15625,-0.3125,0.0,0.0,0.0
1695828934940,-0.0068359375,-0.85546875,0.4951172,0.15625,-0.15625,-0.1875,0.0,0.0,0.0
1695828934981,-0.0087890625,-0.8574219,0.51660156,-0.03125,-0.21875,0.0,0.0,0.0,0.0
1695828935021,-0.0068359375,-0.84765625,0.49804688,0.03125,0.03125,-0.125,0.0,0.0,0.0
1695828935061,-0.0048828125,-0.85546875,0.51660156,0.5,0.09375,-0.0625,54.0,-67.9375,-74.125
1695828935101,-0.01953125,-0.8486328,0.5078125,-0.15625,-0.34375,-0.0625,0.0,0.0,0.0
1695828935141,-0.0048828125,-0.8623047,0.50097656,0.3125,0.21875,-0.3125,0.0,0.0,0.0
1695828935181,-0.018554688,-0.8544922,0.50097656,-0.28125,-0.09375,-0.0625,0.0,0.0,0.0
1695828935221,-0.013671875,-0.8544922,0.50878906,0.6875,0.03125,-0.125,0.0,0.0,0.0
1695828935261,-0.0087890625,-0.8486328,0.49609375,-0.40625,-0.03125,-0.125,0.0,0.0,0.0
1695828935301,-0.015625,-0.8457031,0.51660156,0.03125,0.03125,-0.375,0.0,0.0,0.0
1695828935341,-0.015625,-0.8544922,0.5175781,-0.09375,-0.15625,-0.25,0.0,0.0,0.0
1695828935381,-0.0126953125,-0.8544922,0.50683594,-0.28125,-0.21875,-0.1875,0.0,0.0,0.0
1695828935421,-0.0107421875,-0.8535156,0.5136719,-0.03125,-0.28125,-0.0625,0.0,0.0,0.0
1695828935461,-0.0068359375,-0.8544922,0.5,0.15625,-0.21875,-0.1875,0.0,0.0,0.0
1695828935501,-0.009765625,-0.8515625,0.5263672,0.21875,0.03125,-0.0625,0.0,0.0,0.0
1695828935541,-0.015625,-0.85546875,0.515625,-0.03125,0.21875,-0.1875,0.0,0.0,0.0
1695828935581,-0.0107421875,-0.8564453,0.5048828,-0.15625,0.15625,-0.1875,55.0625,-66.5625,-74.875
1695828935621,-0.013671875,-0.8574219,0.50097656,0.09375,0.09375,-0.3125,0.0,0.0,0.0
1695828935661,-0.009765625,-0.8613281,0.50683594,-0.15625,-0.09375,-0.0625,0.0,0.0,0.0
1695828935702,-0.0107421875,-0.84765625,0.49121094,0.03125,0.03125,-0.125,0.0,0.0,0.0
1695828935742,-0.00390625,-0.8486328,0.49804688,0.03125,-0.21875,-0.125,0.0,0.0,0.0
1695828935782,-0.0126953125,-0.85253906,0.50878906,0.375,0.03125,-0.0625,0.0,0.0,0.0
1695828935822,-0.0126953125,-0.8613281,0.5048828,-0.15625,-0.15625,-0.25,0.0,0.0,0.0
1695828935862,-0.0068359375,-0.85253906,0.52246094,0.375,-0.03125,-0.125,0.0,0.0,0.0
1695828935902,-0.0146484375,-0.86035156,0.5048828,0.5,-0.03125,0.0,0.0,0.0,0.0
1695828935942,-0.013671875,-0.8457031,0.5048828,0.03125,0.03125,-0.0625,0.0,0.0,0.0
1695828935982,-0.0126953125,-0.85253906,0.50390625,0.09375,0.09375,-0.0625,0.0,0.0,0.0
1695828936022,-0.0087890625,-0.8515625,0.5136719,-0.375,-0.0625,0.1875,0.0,0.0,0.0
1695828936062,-0.017578125,-0.8544922,0.5214844,-0.5,0.0,-0.0625,55.0625,-66.875,-74.625
1695828936102,-0.01171875,-0.84765625,0.5107422,-0.4375,-0.125,-0.125,0.0,0.0,0.0
1695828936142,-0.01953125,-0.84472656,0.5185547,-0.5625,-0.0625,0.0,0.0,0.0,0.0
1695828936182,-0.0068359375,-0.8486328,0.5058594,-0.09375,-0.25,0.0625,0.0,0.0,0.0
1695828936222,-0.009765625,-0.8457031,0.52246094,-0.25,-0.0625,0.1875,0.0,0.0,0.0
1695828936262,-0.018554688,-0.8623047,0.515625,0.15625,0.0625,0.25,0.0,0.0,0.0
1695828936302,-0.01953125,-0.85546875,0.51171875,0.03125,0.125,0.1875,0.0,0.0,0.0
1695828936342,-0.016601562,-0.8544922,0.51953125,-0.03125,0.1875,0.25,0.0,0.0,0.0
1695828936382,-0.0126953125,-0.84765625,0.5,-0.03125,0.125,0.125,0.0,0.0,0.0
1695828936422,-0.017578125,-0.8496094,0.51464844,-0.03125,0.125,0.0625,0.0,0.0,0.0
1695828936463,-0.0126953125,-0.8574219,0.515625,-0.375,-0.1875,0.125,0.0,0.0,0.0
1695828936503,-0.0146484375,-0.8496094,0.5214844,-0.21875,0.0,0.125,0.0,0.0,0.0
1695828936543,-0.0146484375,-0.85839844,0.50878906,-0.375,0.0,0.125,0.0,0.0,0.0
1695828936583,-0.01171875,-0.85058594,0.50390625,-0.09375,0.125,0.0625,54.875,-64.9375,-73.25
1695828936623,-0.013671875,-0.8535156,0.50878906,-0.21875,0.0,0.3125,0.0,0.0,0.0
1695828936663,-0.01953125,-0.8496094,0.52441406,-0.09375,0.1875,0.125,0.0,0.0,0.0
1695828936703,-0.0126953125,-0.859375,0.49902344,-0.09375,0.0625,0.0625,0.0,0.0,0.0
1695828936743,-0.005859375,-0.8613281,0.5029297,0.03125,0.0625,0.125,0.0,0.0,0.0
1695828936783,-0.0107421875,-0.859375,0.5175781,-0.3125,0.125,0.3125,0.0,0.0,0.0
1695828936823,-0.024414062,-0.85058594,0.51171875,-0.3125,0.25,0.0,0.0,0.0,0.0
1695828936863,-0.021484375,-0.86035156,0.5126953,0.09375,-0.1875,0.0625,0.0,0.0,0.0
1695828936903,-0.01953125,-0.86328125,0.5058594,0.21875,0.0625,0.0,0.0,0.0,0.0
1695828936943,-0.016601562,-0.8457031,0.5107422,0.03125,0.25,-0.3125,0.0,0.0,0.0
1695828936983,-0.013671875,-0.85253906,0.5107422,-0.03125,0.25,-0.3125,0.0,0.0,0.0
1695828937023,-0.0146484375,-0.8417969,0.51464844,0.28125,0.125,-0.0625,0.0,0.0,0.0
1695828937063,-0.0087890625,-0.8564453,0.5078125,-0.21875,-0.0625,-0.0625,54.875,-65.9375,-74.0
1695828937103,-0.020507812,-0.8535156,0.50683594,0.03125,0.125,-0.0625,0.0,0.0,0.0
1695828937143,-0.009765625,-0.8564453,0.5058594,0.28125,-0.25,-0.125,0.0,0.0,0.0
1695828937184,-0.017578125,-0.8564453,0.4970703,0.03125,0.25,-0.1875,0.0,0.0,0.0
1695828937224,-0.013671875,-0.8535156,0.5107422,-0.03125,0.1875,-0.125,0.0,0.0,0.0
1695828937264,-0.017578125,-0.8515625,0.50390625,-0.15625,0.0,-0.125,0.0,0.0,0.0
1695828937304,-0.017578125,-0.84765625,0.51464844,-0.25,-0.3125,-0.0625,0.0,0.0,0.0
1695828937344,-0.015625,-0.85253906,0.49316406,-0.25,0.0,-0.125,0.0,0.0,0.0
1695828937384,-0.017578125,-0.85839844,0.51464844,-0.25,-0.0625,-0.0625,0.0,0.0,0.0
1695828937424,-0.0146484375,-0.8515625,0.515625,-0.21875,0.0,-0.125,0.0,0.0,0.0
1695828937464,-0.015625,-0.85546875,0.5019531,0.03125,0.1875,-0.125,0.0,0.0,0.0
1695828937504,-0.0107421875,-0.84765625,0.49902344,-0.09375,0.0625,-0.3125,0.0,0.0,0.0
1695828937544,-0.018554688,-0.8623047,0.5058594,-0.09375,0.1875,-0.375,0.0,0.0,0.0
1695828937584,-0.017578125,-0.85058594,0.515625,0.21875,-0.125,-0.125,54.3125,-65.8125,-74.875
1695828937624,-0.0048828125,-0.8564453,0.50878906,-0.21875,-0.125,-0.125,0.0,0.0,0.0
1695828937664,-0.0126953125,-0.8535156,0.51171875,-0.15625,-0.0625,-0.1875,0.0,0.0,0.0
1695828937704,-0.0107421875,-0.8623047,0.51171875,-0.09375,0.0,-0.0625,0.0,0.0,0.0
1695828937744,-0.0107421875,-0.8544922,0.50683594,0.09375,0.1875,-0.3125,0.0,0.0,0.0
1695828937784,-0.0126953125,-0.85839844,0.5,-0.09375,-0.0625,-0.25,0.0,0.0,0.0
1695828937824,-0.0107421875,-0.8535156,0.5136719,0.09375,0.125,-0.1875,0.0,0.0,0.0
1695828937864,-0.0146484375,-0.8496094,0.48828125,0.09375,0.0625,-0.0625,0.0,0.0,0.0
1695828937905,-0.0078125,-0.85058594,0.5058594,0.09375,-0.125,-0.125,0.0,0.0,0.0
1695828937945,-0.0068359375,-0.85058594,0.51171875,0.28125,-0.375,0.0,0.0,0.0,0.0
1695828937985,-0.017578125,-0.84765625,0.5097656,-0.21875,-0.0625,-0.125,0.0,0.0,0.0
1695828938025,-0.0078125,-0.8574219,0.5136719,-0.03125,0.0625,-0.25,0.0,0.0,0.0
1695828938065,-0.015625,-0.84765625,0.51464844,-0.5,0.125,-0.375,55.0625,-65.375,-73.5625
1695828938105,-0.013671875,-0.8466797,0.51171875,-0.21875,-0.125,-0.375,0.0,0.0,0.0
1695828938145,-0.0048828125,-0.8544922,0.50390625,-0.09375,0.0,-0.125,0.0,0.0,0.0
1695828938185,-0.0087890625,-0.859375,0.5029297,-0.09375,-0.0625,-0.125,0.0,0.0,0.0
1695828938225,-0.009765625,-0.8544922,0.5175781,0.21875,-0.0625,-0.125,0.0,0.0,0.0
1695828938265,-0.013671875,-0.85546875,0.5126953,0.21875,0.0,0.1875,0.0,0.0,0.0
1695828938305,-0.015625,-0.85839844,0.5048828,0.21875,0.0625,-0.1875,0.0,0.0,0.0
1695828938345,-0.016601562,-0.8466797,0.5078125,-0.03125,0.125,-0.0625,0.0,0.0,0.0
1695828938385,-0.0126953125,-0.84765625,0.5175781,0.15625,0.125,-0.1875,0.0,0.0,0.0
1695828938425,-0.009765625,-0.8574219,0.5048828,-0.03125,0.125,0.0625,0.0,0.0,0.0
1695828938465,-0.0126953125,-0.8564453,0.5097656,-0.375,-0.125,-0.0625,0.0,0.0,0.0
1695828938505,-0.0126953125,-0.8466797,0.5029297,-0.3125,0.0,0.0,0.0,0.0,0.0
1695828938545,-0.005859375,-0.8486328,0.5029297,-0.25,-0.375,-0.0625,0.0,0.0,0.0
1695828938585,-0.0078125,-0.8535156,0.5175781,-0.4375,-0.0625,-0.125,55.5,-67.75,-75.375
1695828938626,-0.0087890625,-0.8623047,0.5029297,-0.3125,-0.0625,-0.1875,0.0,0.0,0.0
1695828938666,-0.0146484375,-0.8486328,0.51171875,0.15625,0.21875,-0.1875,0.0,0.0,0.0
1695828938706,-0.017578125,-0.8544922,0.51660156,0.09375,0.15625,0.0625,0.0,0.0,0.0
1695828938746,-0.0078125,-0.8496094,0.5048828,0.375,0.15625,0.125,0.0,0.0,0.0
1695828938786,-0.005859375,-0.8535156,0.50878906,-0.09375,0.15625,0.0,0.0,0.0,0.0
1695828938826,0.037109375,-0.87890625,0.4404297,-0.59375,0.0625,-0.125,0.0,0.0,0.0
1695828938866,0.04296875,-0.8857422,0.4609375,0.09375,0.15625,-0.0625,0.0,0.0,0.0
1695828938906,0.037109375,-0.8984375,0.4404297,-0.03125,0.0625,-0.0625,0.0,0.0,0.0
1695828938946,0.034179688,-0.88183594,0.4423828,-1.0625,0.15625,-0.1875,0.0,0.0,0.0
1695828938986,0.03515625,-0.90234375,0.43847656,0.03125,0.125,-0.0625,55.375,-66.125,-77.625
1695828939026,0.034179688,-0.88671875,0.42578125,-0.03125,-0.1875,0.0,0.0,0.0,0.0
1695828939066,0.040039062,-0.890625,0.43847656,0.15625,0.125,-0.0625,0.0,0.0,0.0
1695828939106,0.033203125,-0.90234375,0.4453125,-0.34375,0.0,0.0,0.0,0.0,0.0
1695828939146,0.043945312,-0.89160156,0.44628906,0.5,0.0,-0.1875,0.0,0.0,0.0
1695828939186,0.030273438,-0.8984375,0.4404297,-0.15625,0.15625,-0.0625,0.0,0.0,0.0
1695828939226,0.04296875,-0.8935547,0.43554688,0.03125,0.34375,-0.1875,0.0,0.0,0.0
1695828939266,0.046875,-0.8876953,0.45214844,0.09375,0.21875,-0.0625,0.0,0.0,0.0
1695828939306,0.036132812,-0.8876953,0.44140625,0.03125,0.15625,-0.0625,0.0,0.0,0.0
1695828939347,0.037109375,-0.89453125,0.43847656,-0.09375,0.0,0.125,0.0,0.0,0.0
1695828939387,0.036132812,-0.89160156,0.4326172,0.09375,0.15625,0.0625,0.0,0.0,0.0
1695828939427,0.043945312,-0.8886719,0.44140625,-0.46875,0.46875,0.0,0.0,0.0,0.0
1695828939467,0.03515625,-0.89453125,0.43652344,-0.28125,0.125,-0.125,55.1875,-67.4375,-77.875
1695828939507,0.041015625,-0.88964844,0.4423828,0.09375,0.125,-0.1875,0.0,0.0,0.0
1695828939547,0.040039062,-0.89160156,0.43652344,0.375,-0.0625,0.0625,0.0,0.0,0.0
1695828939587,0.032226562,-0.89746094,0.44628906,-0.34375,0.0625,0.0,0.0,0.0,0.0
1695828939627,0.0390625,-0.88964844,0.44335938,0.375,0.125,0.0,0.0,0.0,0.0
1695828939667,0.038085938,-0.8876953,0.44726562,-0.15625,0.0625,0.125,0.0,0.0,0.0
1695828939707,0.045898438,-0.8935547,0.45703125,-0.21875,-0.125,0.0625,0.0,0.0,0.0
1695828939747,0.032226562,-0.89453125,0.43847656,-0.09375,0.21875,0.125,0.0,0.0,0.0
1695828939787,0.051757812,-0.890625,0.4453125,-0.09375,-0.25,0.0,0.0,0.0,0.0
1695828939827,0.037109375,-0.8828125,0.43066406,0.15625,0.34375,-0.125,0.0,0.0,0.0
1695828939867,0.03515625,-0.89746094,0.43066406,0.03125,0.15625,-0.28125,0.0,0.0,0.0
1695828939907,0.0390625,-0.8925781,0.42578125,0.03125,0.53125,-0.1875,0.0,0.0,0.0
1695828939947,0.041992188,-0.89746094,0.43164062,-0.15625,0.125,-0.1875,0.0,0.0,0.0
1695828939987,0.033203125,-0.8925781,0.43652344,0.21875,0.40625,-0.125,55.9375,-66.25,-78.9375
1695828940027,0.036132812,-0.8925781,0.4345703,0.375,-0.125,-0.28125,0.0,0.0,0.0
1695828940068,0.043945312,-0.8886719,0.43554688,-0.34375,0.21875,0.0625,0.0,0.0,0.0
1695828940108,0.0390625,-0.90234375,0.44335938,-0.03125,0.0625,-0.1875,0.0,0.0,0.0
1695828940148,0.044921875,-0.89160156,0.43652344,-0.28125,0.0625,0.0625,0.0,0.0,0.0
1695828940188,0.034179688,-0.8925781,0.4423828,-0.34375,0.28125,-0.0625,0.0,0.0,0.0
1695828940228,0.034179688,-0.8925781,0.4326172,0.875,0.65625,-0.28125,0.0,0.0,0.0
1695828940268,0.041992188,-0.8886719,0.43554688,-0.34375,0.59375,0.0,0.0,0.0,0.0
1695828940308,0.04296875,-0.89453125,0.43164062,0.625,0.34375,-0.125,0.0,0.0,0.0
1695828940348,0.036132812,-0.89941406,0.4501953,-0.65625,0.40625,0.0625,0.0,0.0,0.0
1695828940388,0.041992188,-0.88964844,0.44140625,0.4375,-0.25,-0.78125,0.0,0.0,0.0
1695828940428,0.036132812,-0.8964844,0.44140625,0.09375,-0.0625,0.375,0.0,0.0,0.0
1695828940468,0.043945312,-0.88671875,0.43554688,0.09375,-0.3125,-0.25,55.0625,-66.875,-78.375
1695828940508,0.04296875,-0.890625,0.44921875,0.09375,-0.1875,0.25,0.0,0.0,0.0
1695828940548,0.037109375,-0.8886719,0.4296875,-0.21875,-0.375,0.0,0.0,0.0,0.0
1695828940588,0.044921875,-0.8847656,0.43164062,0.09375,-0.25,0.0625,0.0,0.0,0.0
1695828940628,0.038085938,-0.8984375,0.44628906,-0.78125,0.0625,0.1875,0.0,0.0,0.0
1695828940668,0.040039062,-0.89160156,0.4375,-0.09375,-0.1875,-0.1875,0.0,0.0,0.0
1695828940708,0.038085938,-0.89941406,0.42871094,-0.46875,0.46875,0.0625,0.0,0.0,0.0
1695828940748,0.041992188,-0.88964844,0.4296875,0.15625,0.21875,-0.28125,0.0,0.0,0.0
1695828940789,0.037109375,-0.89160156,0.45117188,0.28125,0.21875,0.125,0.0,0.0,0.0
1695828940829,0.043945312,-0.89160156,0.4248047,0.375,0.28125,-0.125,0.0,0.0,0.0
1695828940869,0.038085938,-0.8886719,0.4345703,0.09375,0.21875,-0.0625,0.0,0.0,0.0
1695828940909,0.04296875,-0.89453125,0.4326172,-0.15625,0.0,-0.125,0.0,0.0,0.0
1695828940949,0.03515625,-0.89160156,0.44140625,0.03125,-0.25,0.0,0.0,0.0,0.0
1695828940989,0.028320312,-0.89746094,0.43847656,-0.03125,-0.0625,-0.125,56.25,-69.25,-77.875
1695828941029,0.033203125,-0.9003906,0.44140625,-0.09375,0.0,-0.0625,0.0,0.0,0.0
1695828941069,0.037109375,-0.89160156,0.4423828,0.09375,0.15625,-0.1875,0.0,0.0,0.0
1695828941109,0.03515625,-0.8876953,0.42773438,-0.40625,-0.1875,-0.125,0.0,0.0,0.0
1695828941149,0.049804688,-0.8925781,0.4326172,0.375,-0.1875,-0.0625,0.0,0.0,0.0
1695828941189,0.045898438,-0.8847656,0.42773438,0.09375,-0.25,0.0625,0.0,0.0,0.0
1695828941229,0.048828125,-0.8964844,0.43066406,-0.28125,-0.125,-0.0625,0.0,0.0,0.0
1695828941269,0.040039062,-0.8984375,0.43164062,0.15625,0.28125,0.1875,0.0,0.0,0.0
1695828941309,0.04296875,-0.8876953,0.4482422,0.21875,0.0625,-0.0625,0.0,0.0,0.0
1695828941349,0.041015625,-0.890625,0.43359375,0.5,0.21875,-0.0625,0.0,0.0,0.0
1695828941389,0.036132812,-0.8925781,0.4404297,-0.34375,0.28125,0.0625,0.0,0.0,0.0
1695828941429,0.043945312,-0.8935547,0.43652344,0.3125,0.28125,-0.34375,0.0,0.0,0.0
1695828941469,0.038085938,-0.8886719,0.43945312,-0.09375,0.46875,-0.0625,55.5,-68.0625,-78.9375
1695828941510,0.038085938,-0.8925781,0.44335938,-0.46875,0.125,-0.34375,0.0,0.0,0.0
1695828941550,0.038085938,-0.8925781,0.4404297,0.375,0.21875,-0.25,0.0,0.0,0.0
1695828941590,0.037109375,-0.8984375,0.43652344,0.03125,0.0625,0.0,0.0,0.0,0.0
1695828941630,0.034179688,-0.8955078,0.4404297,0.21875,0.0625,-0.1875,0.0,0.0,0.0
1695828941670,0.048828125,-0.8886719,0.41992188,-0.40625,0.125,-0.0625,0.0,0.0,0.0
1695828941710,0.041015625,-0.90527344,0.43847656,-0.03125,0.0,-0.0625,0.0,0.0,0.0
1695828941750,0.043945312,-0.9003906,0.44433594,0.21875,0.0,0.125,0.0,0.0,0.0
1695828941790,0.046875,-0.89160156,0.4423828,-0.28125,-0.1875,0.0625,0.0,0.0,0.0
1695828941830,0.03515625,-0.8798828,0.44140625,-0.21875,0.28125,-0.0625,0.0,0.0,0.0
1695828941870,0.036132812,-0.9033203,0.4345703,-0.03125,0.21875,-0.0625,0.0,0.0,0.0
1695828941910,0.041992188,-0.88964844,0.42578125,0.15625,-0.125,-0.1875,0.0,0.0,0.0
1695828941950,0.046875,-0.8857422,0.44433594,0.09375,-0.25,0.0625,0.0,0.0,0.0
1695828941990,0.032226562,-0.9003906,0.4482422,-0.53125,0.0,-0.0625,56.125,-67.625,-78.375
1695828942030,0.037109375,-0.8857422,0.44726562,0.28125,0.0,0.0625,0.0,0.0,0.0
1695828942070,0.041015625,-0.8935547,0.43945312,-0.15625,0.15625,-0.1875,0.0,0.0,0.0
1695828942110,0.041015625,-0.8925781,0.43945312,-0.34375,0.34375,-0.0625,0.0,0.0,0.0
1695828942150,0.041015625,-0.8955078,0.4345703,0.03125,-0.125,-0.1875,0.0,0.0,0.0
1695828942190,0.036132812,-0.9033203,0.4423828,0.5,0.15625,0.0,0.0,0.0,0.0
1695828942231,0.047851562,-0.8857422,0.4423828,-0.21875,-0.0625,-0.0625,0.0,0.0,0.0
1695828942271,0.0390625,-0.8925781,0.4296875,0.09375,0.21875,-0.125,0.0,0.0,0.0
1695828942311,0.049804688,-0.8935547,0.43652344,-0.34375,-0.0625,-0.0625,0.0,0.0,0.0
1695828942351,0.034179688,-0.89160156,0.42871094,0.09375,0.0625,0.0,0.0,0.0,0.0
1695828942391,0.03515625,-0.89453125,0.44433594,-0.09375,0.125,-0.0625,0.0,0.0,0.0
1695828942431,0.052734375,-0.8847656,0.4345703,0.3125,0.0,0.0,0.0,0.0,0.0
1695828942471,0.034179688,-0.8984375,0.44335938,-0.28125,0.21875,-0.125,55.1875,-67.75,-77.875
1695828942511,0.036132812,-0.89160156,0.4267578,-0.03125,-0.125,0.0,0.0,0.0,0.0
1695828942551,0.038085938,-0.8828125,0.43652344,0.375,0.125,-0.125,0.0,0.0,0.0
1695828942591,0.032226562,-0.89453125,0.43554688,0.21875,0.28125,-0.125,0.0,0.0,0.0
1695828942631,0.040039062,-0.89160156,0.4326172,0.03125,0.59375,-0.34375,0.0,0.0,0.0
1695828942671,0.032226562,-0.8935547,0.4345703,0.3125,0.125,-0.0625,0.0,0.0,0.0
1695828942711,0.034179688,-0.8935547,0.4404297,0.375,0.21875,-0.25,0.0,0.0,0.0
1695828942751,0.052734375,-0.8964844,0.43554688,0.3125,0.15625,-0.0625,0.0,0.0,0.0
1695828942791,0.04296875,-0.89453125,0.43164062,0.03125,0.125,-0.125,0.0,0.0,0.0
1695828942831,0.036132812,-0.8847656,0.4453125,-0.09375,-0.3125,-0.125,0.0,0.0,0.0
1695828942871,0.041992188,-0.8955078,0.45703125,-0.40625,0.125,0.0,0.0,0.0,0.0
1695828942911,0.032226562,-0.8955078,0.42382812,-1.375,0.0,-0.1875,0.0,0.0,0.0
1695828942952,0.040039062,-0.88378906,0.43066406,-0.21875,-0.375,-0.125,0.0,0.0,0.0
1695828942992,0.034179688,-0.9111328,0.43554688,-0.78125,-0.6875,-0.0625,54.875,-68.0625,-78.1875
1695828943032,0.03515625,-0.9033203,0.42773438,1.125,-0.75,0.0625,0.0,0.0,0.0
1695828943072,0.03515625,-0.8886719,0.43945312,0.75,-0.3125,-0.0625,0.0,0.0,0.0
1695828943112,0.041015625,-0.88671875,0.44628906,0.375,0.125,-0.125,0.0,0.0,0.0
1695828943152,0.0390625,-0.88964844,0.44628906,0.3125,0.28125,-0.125,0.0,0.0,0.0
1695828943192,0.03515625,-0.88964844,0.43945312,-0.15625,-0.0625,0.0,0.0,0.0,0.0
1695828943232,0.049804688,-0.8798828,0.44140625,-0.03125,-0.25,0.0,0.0,0.0,0.0
1695828943272,0.040039062,-0.8955078,0.43066406,-1.25,0.21875,-0.0625,0.0,0.0,0.0
1695828943312,0.037109375,-0.89941406,0.4404297,-0.03125,0.21875,-0.125,0.0,0.0,0.0
1695828943352,0.041015625,-0.8925781,0.4404297,-0.65625,0.28125,0.0,0.0,0.0,0.0
1695828943392,0.03515625,-0.89746094,0.43164062,0.03125,0.40625,-0.28125,0.0,0.0,0.0
1695828943432,0.038085938,-0.8935547,0.44726562,0.375,0.59375,-0.0625,0.0,0.0,0.0
1695828943472,0.033203125,-0.890625,0.44433594,0.21875,0.28125,-0.1875,55.375,-67.1875,-77.0
1695828943512,0.043945312,-0.8955078,0.44726562,0.5,0.15625,-0.25,0.0,0.0,0.0
1695828943552,0.049804688,-0.9042969,0.45117188,0.6875,-0.0625,0.125,0.0,0.0,0.0
1695828943592,0.043945312,-0.8886719,0.4560547,-0.34375,-0.4375,0.25,0.0,0.0,0.0
1695828943632,0.046875,-0.88671875,0.43652344,-0.03125,-0.1875,0.25,0.0,0.0,0.0
1695828943672,0.037109375,-0.890625,0.43164062,-0.5625,-0.1875,0.40625,0.0,0.0,0.0
1695828943713,0.0546875,-0.890625,0.4326172,0.125,0.1875,0.28125,0.0,0.0,0.0
1695828943753,0.037109375,-0.9033203,0.4326172,0.0,0.125,0.28125,0.0,0.0,0.0
1695828943793,0.05078125,-0.89160156,0.42773438,0.125,0.0625,-0.25,0.0,0.0,0.0
1695828943833,0.036132812,-0.89746094,0.43652344,0.25,0.375,-0.125,0.0,0.0,0.0
1695828943873,0.043945312,-0.9013672,0.44628906,-0.125,0.25,-0.4375,0.0,0.0,0.0
1695828943913,0.041992188,-0.8955078,0.4453125,0.0,0.1875,-0.0625,0.0,0.0,0.0
1695828943953,0.0390625,-0.88671875,0.43066406,-0.5625,0.0625,-0.1875,0.0,0.0,0.0
1695828943993,0.03125,-0.8984375,0.43359375,0.1875,0.125,0.0,55.5,-67.75,-78.1875
1695828944033,0.04296875,-0.8857422,0.4423828,-0.0625,0.0,0.03125,0.0,0.0,0.0
1695828944073,0.030273438,-0.89941406,0.43652344,-0.96875,0.0,0.03125,0.0,0.0,0.0
1695828944113,0.034179688,-0.88671875,0.43359375,0.3125,0.0,0.0,0.0,0.0,0.0
1695828944153,0.03515625,-0.8955078,0.4501953,-0.90625,0.375,0.0,0.0,0.0,0.0
1695828944193,0.041992188,-0.9013672,0.43652344,0.5625,0.4375,-0.125,0.0,0.0,0.0
1695828944233,0.047851562,-0.88964844,0.44921875,-0.5,0.5625,-0.3125,0.0,0.0,0.0
1695828944273,0.033203125,-0.90625,0.43359375,-0.65625,0.0625,0.03125,0.0,0.0,0.0
1695828944313,0.048828125,-0.89160156,0.42285156,0.90625,-0.84375,0.09375,0.0,0.0,0.0
1695828944353,0.04296875,-0.9042969,0.43945312,1.03125,-0.46875,0.40625,0.0,0.0,0.0
1695828944393,0.036132812,-0.8808594,0.43066406,0.0625,-0.125,0.34375,0.0,0.0,0.0
1695828944434,0.033203125,-0.89941406,0.45898438,0.3125,0.5,0.21875,0.0,0.0,0.0
1695828944474,0.036132812,-0.87402344,0.43359375,-0.375,-0.1875,0.09375,56.875,-66.875,-79.125
1695828944514,0.03515625,-0.89160156,0.42871094,-0.5,-0.53125,0.09375,0.0,0.0,0.0
1695828944554,0.034179688,-0.890625,0.43847656,0.25,-0.59375,0.03125,0.0,0.0,0.0
1695828944594,0.049804688,-0.8886719,0.43652344,-0.59375,-0.65625,0.21875,0.0,0.0,0.0
1695828944634,0.045898438,-0.89746094,0.4345703,-0.3125,-0.25,-0.0625,0.0,0.0,0.0
1695828944674,0.049804688,-0.89746094,0.44335938,-0.0625,-0.25,0.21875,0.0,0.0,0.0
1695828944714,0.041992188,-0.8886719,0.43847656,-0.1875,0.0625,0.21875,0.0,0.0,0.0
1695828944754,0.04296875,-0.88964844,0.43652344,0.0625,0.0625,0.34375,0.0,0.0,0.0
1695828944794,0.044921875,-0.89160156,0.43359375,-0.125,-0.125,0.09375,0.0,0.0,0.0
1695828944834,0.03515625,-0.9013672,0.4423828,0.125,0.1875,0.21875,0.0,0.0,0.0
1695828944874,0.037109375,-0.88964844,0.43359375,0.375,0.0,0.03125,0.0,0.0,0.0
1695828944914,0.034179688,-0.88183594,0.44628906,0.125,0.4375,0.09375,0.0,0.0,0.0
1695828944954,0.033203125,-0.89160156,0.43554688,-0.25,-0.3125,-0.125,0.0,0.0,0.0
1695828944994,0.032226562,-0.89160156,0.44335938,0.375,-0.125,0.09375,56.25,-67.0,-79.25
1695828945034,0.043945312,-0.8886719,0.43554688,-0.5,-0.53125,0.0,0.0,0.0,0.0
1695828945074,0.043945312,-0.89160156,0.4423828,0.125,-0.3125,0.28125,0.0,0.0,0.0
1695828945114,0.04296875,-0.8955078,0.4189453,-0.375,-0.25,0.40625,0.0,0.0,0.0
1695828945155,0.053710938,-0.8925781,0.4267578,0.0625,-0.1875,0.28125,0.0,0.0,0.0
1695828945195,0.03515625,-0.8886719,0.42871094,-0.4375,-0.25,0.15625,0.0,0.0,0.0
1695828945235,0.041015625,-0.9013672,0.4501953,0.625,-0.125,0.0,0.0,0.0,0.0
1695828945275,0.030273438,-0.8964844,0.4326172,0.0,-0.34375,0.03125,0.0,0.0,0.0
1695828945315,0.043945312,-0.9033203,0.42773438,0.1875,-0.0625,0.03125,0.0,0.0,0.0
1695828945355,0.044921875,-0.890625,0.44140625,-0.3125,0.0,0.0,0.0,0.0,0.0
1695828945395,0.041992188,-0.8984375,0.45898438,0.0,0.125,0.09375,0.0,0.0,0.0
1695828945435,0.041015625,-0.890625,0.45214844,-0.5625,-0.125,0.03125,0.0,0.0,0.0
1695828945475,0.038085938,-0.9033203,0.43652344,-0.25,-0.1875,0.40625,56.875,-66.875,-77.3125
1695828945515,0.040039062,-0.8955078,0.43554688,0.125,-0.3125,-0.0625,0.0,0.0,0.0
1695828945555,0.041015625,-0.8925781,0.44628906,0.4375,-0.25,0.34375,0.0,0.0,0.0
1695828945595,0.036132812,-0.9013672,0.4482422,-0.3125,-0.3125,0.0,0.0,0.0,0.0
1695828945635,0.041992188,-0.88378906,0.43945312,0.1875,0.0,0.03125,0.0,0.0,0.0
1695828945675,0.03515625,-0.8886719,0.44726562,-0.4375,-0.25,-0.125,0.0,0.0,0.0
1695828945715,0.038085938,-0.89160156,0.43652344,0.25,-0.1875,-0.125,0.0,0.0,0.0
1695828945755,0.03515625,-0.88964844,0.43847656,-0.4375,-0.0625,0.09375,0.0,0.0,0.0
1695828945795,0.05078125,-0.890625,0.4501953,0.375,-0.3125,0.21875,0.0,0.0,0.0
1695828945835,0.037109375,-0.8925781,0.44140625,-0.0625,0.0,0.03125,0.0,0.0,0.0
1695828945876,0.041015625,-0.8847656,0.4326172,0.125,-0.125,0.09375,0.0,0.0,0.0
1695828945916,0.040039062,-0.9003906,0.43847656,0.0625,0.1875,0.09375,0.0,0.0,0.0
1695828945956,0.038085938,-0.8769531,0.45214844,-0.59375,-0.1875,0.09375,0.0,0.0,0.0
1695828945996,0.04296875,-0.90527344,0.43652344,0.0625,0.0,0.09375,53.125,-68.5,-79.25
1695828946036,0.033203125,-0.8984375,0.43359375,-0.1875,-0.34375,0.0,0.0,0.0,0.0
1695828946076,0.0390625,-0.8925781,0.4345703,0.1875,-0.46875,0.0,0.0,0.0,0.0
1695828946116,0.041992188,-0.8984375,0.43359375,-0.3125,-0.34375,0.0,0.0,0.0,0.0
1695828946156,0.038085938,-0.9013672,0.4345703,0.1875,-0.1875,0.03125,0.0,0.0,0.0
1695828946196,0.03125,-0.89160156,0.4453125,0.0625,-0.125,0.15625,0.0,0.0,0.0
1695828946236,0.044921875,-0.90234375,0.43554688,0.375,0.0,0.0,0.0,0.0,0.0
1695828946276,0.036132812,-0.88964844,0.44140625,0.0,0.0,0.09375,0.0,0.0,0.0
1695828946316,0.045898438,-0.890625,0.4423828,0.5625,-0.34375,0.15625,0.0,0.0,0.0
1695828946356,0.038085938,-0.8925781,0.43652344,0.3125,-0.3125,0.03125,0.0,0.0,0.0
1695828946396,0.04296875,-0.8857422,0.4375,0.0625,-0.125,0.03125,0.0,0.0,0.0
1695828946436,0.0390625,-0.8935547,0.4482422,-0.4375,0.125,-0.0625,0.0,0.0,0.0
1695828946476,0.046875,-0.89746094,0.44335938,0.25,0.25,0.15625,56.875,-68.6875,-76.25
1695828946516,0.030273438,-0.8935547,0.43945312,-0.375,0.125,-0.0625,0.0,0.0,0.0
1695828946556,0.04296875,-0.8935547,0.4326172,0.1875,0.0,0.0,0.0,0.0,0.0
1695828946597,0.032226562,-0.8964844,0.42578125,0.25,-0.34375,0.28125,0.0,0.0,0.0
1695828946637,0.05078125,-0.8828125,0.43554688,-0.0625,-0.40625,0.09375,0.0,0.0,0.0
1695828946677,0.036132812,-0.9042969,0.4453125,0.25,-0.1875,0.09375,0.0,0.0,0.0
1695828946717,0.044921875,-0.890625,0.4423828,0.5,0.0,0.15625,0.0,0.0,0.0
1695828946757,0.034179688,-0.8935547,0.43945312,-0.5625,-0.0625,0.15625,0.0,0.0,0.0
1695828946797,0.04296875,-0.8964844,0.4423828,0.375,-0.3125,0.03125,0.0,0.0,0.0
1695828946837,0.040039062,-0.89746094,0.43554688,-0.0625,-0.1875,0.21875,0.0,0.0,0.0
1695828946877,0.02734375,-0.90625,0.4375,-0.375,0.0,0.03125,0.0,0.0,0.0
1695828946917,0.045898438,-0.9013672,0.43652344,0.25,-0.25,0.21875,0.0,0.0,0.0
1695828946957,0.047851562,-0.9082031,0.43164062,-0.0625,-0.34375,0.09375,0.0,0.0,0.0
1695828946997,0.043945312,-0.8886719,0.43847656,0.375,-0.1875,0.03125,55.375,-67.625,-79.125
1695828947037,0.051757812,-0.89453125,0.43847656,-0.0625,-0.3125,0.21875,0.0,0.0,0.0
1695828947077,0.041992188,-0.89746094,0.43164062,0.0625,0.0625,0.15625,0.0,0.0,0.0
1695828947117,0.037109375,-0.8886719,0.43945312,0.3125,-0.125,0.28125,0.0,0.0,0.0
1695828947157,0.04296875,-0.8935547,0.43359375,-0.4375,0.375,0.09375,0.0,0.0,0.0
1695828947197,0.038085938,-0.9013672,0.4404297,0.625,0.125,0.15625,0.0,0.0,0.0
1695828947237,0.041992188,-0.8876953,0.4296875,-0.125,-0.125,0.15625,0.0,0.0,0.0
1695828947277,0.038085938,-0.8935547,0.4296875,0.375,0.1875,0.09375,0.0,0.0,0.0
1695828947318,0.04296875,-0.8886719,0.44140625,-0.125,-0.0625,0.28125,0.0,0.0,0.0
1695828947358,0.041015625,-0.8925781,0.4501953,0.0,-0.125,0.15625,0.0,0.0,0.0
1695828947398,0.033203125,-0.9003906,0.44726562,-0.1875,-0.125,0.15625,0.0,0.0,0.0
1695828947438,0.047851562,-0.8886719,0.45898438,0.3125,-0.71875,0.21875,0.0,0.0,0.0
1695828947478,0.04296875,-0.8847656,0.4375,-0.125,-0.25,0.21875,56.375,-67.1875,-79.375
1695828947518,0.041992188,-0.9013672,0.4404297,-0.0625,-0.40625,-0.0625,0.0,0.0,0.0
1695828947558,0.0390625,-0.8876953,0.4423828,-0.0625,-0.34375,0.34375,0.0,0.0,0.0
1695828947598,0.041015625,-0.8955078,0.44628906,-0.25,-0.25,0.09375,0.0,0.0,0.0
1695828947638,0.036132812,-0.90234375,0.4482422,0.3125,-0.0625,0.21875,0.0,0.0,0.0
1695828947678,0.044921875,-0.890625,0.44628906,0.125,-0.34375,0.03125,0.0,0.0,0.0
1695828947718,0.0390625,-0.9003906,0.43359375,-0.0625,-0.125,0.21875,0.0,0.0,0.0
1695828947758,0.04296875,-0.8984375,0.44726562,0.0625,-0.59375,0.21875,0.0,0.0,0.0
1695828947798,0.045898438,-0.8984375,0.42773438,0.375,-0.34375,0.40625,0.0,0.0,0.0
1695828947838,0.040039062,-0.8984375,0.4404297,-0.59375,0.375,0.03125,0.0,0.0,0.0
1695828947878,0.037109375,-0.8876953,0.4345703,0.375,0.1875,-0.0625,0.0,0.0,0.0
1695828947918,0.030273438,-0.8955078,0.43652344,0.4375,0.0,-0.0625,0.0,0.0,0.0
1695828947958,0.040039062,-0.890625,0.4345703,0.71875,-0.34375,0.15625,56.6875,-68.0625,-77.4375
1695828947998,0.045898438,-0.8984375,0.44335938,0.25,-0.25,0.09375,0.0,0.0,0.0
1695828948039,0.045898438,-0.8798828,0.44140625,0.6875,-0.53125,0.28125,0.0,0.0,0.0
1695828948079,0.037109375,-0.8925781,0.43554688,-0.25,-0.40625,0.28125,0.0,0.0,0.0
1695828948119,0.044921875,-0.8876953,0.4482422,-0.0625,-0.46875,0.15625,0.0,0.0,0.0
1695828948159,0.03515625,-0.8925781,0.4326172,-0.84375,-0.25,0.15625,0.0,0.0,0.0
1695828948199,0.041992188,-0.8984375,0.42578125,-0.375,0.0,0.03125,0.0,0.0,0.0
1695828948239,0.046875,-0.8935547,0.43652344,0.0,0.0,0.03125,0.0,0.0,0.0
1695828948279,0.033203125,-0.91015625,0.4404297,0.1875,0.1875,-0.0625,0.0,0.0,0.0
1695828948319,0.041992188,-0.88964844,0.4453125,0.6875,0.1875,-0.0625,0.0,0.0,0.0
1695828948359,0.03515625,-0.890625,0.44140625,0.375,0.0625,0.21875,0.0,0.0,0.0
1695828948399,0.037109375,-0.8730469,0.44140625,0.25,0.1875,0.03125,0.0,0.0,0.0
1695828948439,0.037109375,-0.89160156,0.43847656,-0.125,0.0625,0.28125,0.0,0.0,0.0
1695828948479,0.045898438,-0.8925781,0.44335938,0.0625,-0.34375,0.03125,56.125,-66.875,-78.625
1695828948519,0.040039062,-0.8955078,0.4326172,-0.5625,-0.46875,0.21875,0.0,0.0,0.0
1695828948559,0.045898438,-0.89160156,0.421875,-0.4375,-0.46875,0.03125,0.0,0.0,0.0
1695828948599,0.041992188,-0.8935547,0.4404297,0.0625,-0.34375,0.15625,0.0,0.0,0.0
1695828948639,0.041992188,-0.8964844,0.4326172,-0.1875,-0.25,-0.0625,0.0,0.0,0.0
1695828948679,0.040039062,-0.89941406,0.4501953,0.1875,0.4375,0.0,0.0,0.0,0.0
1695828948719,0.038085938,-0.8857422,0.43652344,0.25,0.0,0.03125,0.0,0.0,0.0
1695828948760,0.041992188,-0.8935547,0.4326172,0.375,0.0625,0.0,0.0,0.0,0.0
1695828948800,0.044921875,-0.89453125,0.44140625,0.5625,-0.0625,0.03125,0.0,0.0,0.0
1695828948840,0.040039062,-0.8935547,0.43359375,-0.3125,0.0,0.21875,0.0,0.0,0.0
1695828948880,0.043945312,-0.8935547,0.4404297,-0.5,-0.125,-0.25,0.0,0.0,0.0
1695828948920,0.041015625,-0.8876953,0.44433594,0.15625,-0.1875,0.15625,0.0,0.0,0.0
1695828948960,0.045898438,-0.8955078,0.44335938,-0.1875,-0.125,-0.0625,56.25,-66.25,-78.5
1695828949000,0.0390625,-0.88183594,0.4248047,-0.375,0.125,0.34375,0.0,0.0,0.0
1695828949040,0.036132812,-0.8935547,0.44726562,0.15625,0.1875,-0.0625,0.0,0.0,0.0
1695828949080,0.044921875,-0.8925781,0.453125,0.09375,0.3125,0.15625,0.0,0.0,0.0
1695828949120,0.044921875,-0.8886719,0.4326172,-0.5,-0.1875,0.0,0.0,0.0,0.0
1695828949160,0.0390625,-0.9003906,0.43164062,0.21875,0.0,0.125,0.0,0.0,0.0
1695828949200,0.043945312,-0.89160156,0.45214844,0.15625,-0.0625,0.125,0.0,0.0,0.0
1695828949240,0.044921875,-0.8886719,0.41992188,-0.4375,-0.1875,0.21875,0.0,0.0,0.0
1695828949280,0.036132812,-0.8955078,0.43359375,0.09375,0.0625,0.0,0.0,0.0,0.0
1695828949320,0.038085938,-0.8847656,0.45507812,-0.3125,-0.375,0.0625,0.0,0.0,0.0
1695828949360,0.041015625,-0.9013672,0.42578125,-0.5,-0.125,0.0625,0.0,0.0,0.0
1695828949400,0.0390625,-0.8935547,0.42578125,-0.25,-0.3125,-0.0625,0.0,0.0,0.0
1695828949440,0.040039062,-0.890625,0.44628906,0.09375,0.375,0.0,0.0,0.0,0.0
1695828949481,0.03515625,-0.9003906,0.43652344,-0.25,0.125,-0.0625,55.5,-66.6875,-78.5
1695828949521,0.045898438,-0.8808594,0.42871094,0.59375,-0.1875,0.125,0.0,0.0,0.0
1695828949561,0.045898438,-0.8964844,0.4453125,-0.3125,0.0,0.15625,0.0,0.0,0.0
1695828949601,0.04296875,-0.89746094,0.4423828,-0.09375,0.4375,0.125,0.0,0.0,0.0
1695828949641,0.048828125,-0.8925781,0.43847656,-0.25,0.125,0.15625,0.0,0.0,0.0
1695828949681,0.041992188,-0.89453125,0.43359375,-0.375,0.3125,0.0,0.0,0.0,0.0
1695828949721,0.040039062,-0.89160156,0.43359375,-0.3125,0.125,0.0625,0.0,0.0,0.0
1695828949761,0.041015625,-0.9042969,0.43554688,-0.3125,-0.4375,0.0625,0.0,0.0,0.0
1695828949801,0.0390625,-0.89160156,0.4345703,0.34375,-0.3125,0.15625,0.0,0.0,0.0
1695828949841,0.0390625,-0.89160156,0.4482422,-0.5625,0.0,0.125,0.0,0.0,0.0
1695828949881,0.0390625,-0.90527344,0.43652344,0.21875,0.1875,0.0,0.0,0.0,0.0
1695828949921,0.038085938,-0.8857422,0.43652344,-0.625,0.0,0.125,0.0,0.0,0.0
1695828949961,0.041015625,-0.8964844,0.43359375,0.15625,-0.1875,0.125,55.5,-66.25,-78.5
1695828950001,0.045898438,-0.88964844,0.43164062,-0.09375,-0.0625,-0.125,0.0,0.0,0.0
1695828950041,0.045898438,-0.8886719,0.4404297,-0.03125,0.1875,-0.1875,0.0,0.0,0.0
1695828950081,0.038085938,-0.8935547,0.44628906,0.03125,-0.0625,0.0625,0.0,0.0,0.0
1695828950121,0.04296875,-0.89160156,0.43359375,-0.1875,-0.3125,0.0625,0.0,0.0,0.0
1695828950161,0.043945312,-0.8935547,0.44433594,0.09375,-0.4375,0.125,0.0,0.0,0.0
1695828950202,0.049804688,-0.8925781,0.44628906,0.34375,0.0625,0.15625,0.0,0.0,0.0
