# Sensor type: Thingy
# Activity type: Running
# Activity subtype: Normal
# Subject id: s2094705
# Notes: 
timestamp,accel_x,accel_y,accel_z,gyro_x,gyro_y,gyro_z,mag_x,mag_y,mag_z
1695310735154,-0.25097656,-0.17871094,0.46972656,104.71875,19.5,13.59375,0.0,0.0,0.0
1695310735194,-0.3486328,-0.20410156,0.38964844,-46.28125,55.9375,56.0,0.0,0.0,0.0
1695310735234,-0.19921875,0.15527344,-0.57421875,-196.96875,67.96875,93.78125,0.0,0.0,0.0
1695310735274,-0.28027344,-1.0214844,0.2919922,-53.90625,104.09375,67.90625,0.0,0.0,0.0
1695310735314,-1.3339844,-0.29492188,0.33203125,-63.6875,61.0625,22.5,0.0,0.0,0.0
1695310735354,-0.22851562,0.42773438,0.19433594,-78.375,4.375,82.9375,0.0,0.0,0.0
1695310735394,-1.7792969,0.22460938,-0.07128906,-120.6875,29.28125,117.53125,-35.25,-11.1875,-112.5625
1695310735434,-1.7304688,-0.53808594,-0.32714844,-100.96875,37.09375,160.1875,0.0,0.0,0.0
1695310735474,-1.9697266,-0.9482422,-0.55566406,94.15625,56.25,193.78125,0.0,0.0,0.0
1695310735514,-1.9697266,-0.96191406,0.6894531,4.9375,104.96875,198.78125,0.0,0.0,0.0
1695310735554,-0.9824219,-0.0546875,0.38085938,-71.625,57.96875,57.34375,0.0,0.0,0.0
1695310735594,-0.12402344,-0.25390625,0.12890625,-34.875,5.40625,56.3125,0.0,0.0,0.0
1695310735634,0.053710938,-0.9140625,-0.40234375,-78.4375,-48.0,-1.125,0.0,0.0,0.0
1695310735674,0.5839844,-0.98535156,0.39941406,51.1875,-22.65625,-53.40625,0.0,0.0,0.0
1695310735714,-0.3876953,-0.1171875,0.19042969,-5.3125,-26.03125,-136.84375,0.0,0.0,0.0
1695310735754,-0.4296875,0.16113281,0.0078125,58.6875,-92.375,-124.96875,0.0,0.0,0.0
1695310735794,-1.9697266,-0.39257812,-0.05078125,127.71875,-99.5,-263.6875,0.0,0.0,0.0
1695310735834,-1.9697266,-0.0029296875,0.28808594,-262.53125,-108.96875,-162.625,0.0,0.0,0.0
1695310735874,-1.9697266,-0.9628906,-0.48339844,-58.0,-9.0625,-203.5625,0.0,0.0,0.0
1695310735915,-1.2695312,-0.62402344,-0.111328125,205.65625,-59.34375,-93.71875,-33.3125,-14.6875,-113.75
1695310735955,-0.37695312,0.3408203,-0.2890625,191.75,-43.125,4.6875,0.0,0.0,0.0
1695310735995,0.2548828,0.8388672,-0.24121094,99.65625,14.5625,78.96875,0.0,0.0,0.0
1695310736035,0.6826172,0.9082031,-0.46191406,-76.25,108.1875,152.34375,0.0,0.0,0.0
1695310736075,-0.4033203,-0.31347656,0.30273438,-136.3125,177.71875,150.0,0.0,0.0,0.0
1695310736115,-1.0439453,-1.0419922,0.72753906,119.5625,-31.46875,20.5,0.0,0.0,0.0
1695310736155,-0.5722656,-0.8955078,-1.2021484,2.25,5.90625,-91.9375,0.0,0.0,0.0
1695310736195,-1.9697266,1.0878906,0.20507812,-89.125,118.6875,-120.125,0.0,0.0,0.0
1695310736235,0.5019531,0.33789062,-0.8066406,-33.09375,51.0625,-20.9375,0.0,0.0,0.0
1695310736275,-1.9697266,1.3798828,0.0078125,-18.5,44.40625,225.375,0.0,0.0,0.0
1695310736315,-1.9697266,-0.3544922,-0.35351562,151.46875,17.90625,252.0,0.0,0.0,0.0
1695310736355,-1.9697266,-0.56933594,0.4658203,-41.21875,103.5,143.40625,0.0,0.0,0.0
1695310736395,-0.5957031,-0.6279297,0.068359375,-41.15625,61.75,79.875,-35.5625,5.125,-123.8125
1695310736435,-0.40527344,-0.5419922,0.40527344,-0.3125,-13.9375,77.8125,0.0,0.0,0.0
1695310736475,-0.005859375,-1.1474609,-0.3544922,-97.125,-8.5,-10.9375,0.0,0.0,0.0
1695310736515,0.40722656,-0.62890625,0.38378906,18.59375,1.875,-62.28125,0.0,0.0,0.0
1695310736555,-0.2685547,0.109375,0.041992188,45.46875,-33.96875,-97.4375,0.0,0.0,0.0
1695310736595,-0.28320312,-0.049804688,-0.18359375,39.15625,-103.90625,-109.28125,0.0,0.0,0.0
1695310736635,-1.9697266,-0.28320312,0.3408203,112.21875,3.6875,-251.84375,0.0,0.0,0.0
1695310736676,-1.9697266,-0.06640625,-0.15136719,-72.40625,-118.5625,-142.90625,0.0,0.0,0.0
1695310736716,-1.9697266,-0.29882812,-0.6064453,-225.90625,18.21875,-145.71875,0.0,0.0,0.0
1695310736756,-1.421875,-0.7060547,-0.115234375,127.5,-35.90625,-96.875,0.0,0.0,0.0
1695310736796,-0.6933594,0.39648438,-0.43066406,265.0625,-78.8125,-28.75,0.0,0.0,0.0
1695310736836,0.79785156,1.4521484,-0.5498047,127.96875,-23.09375,67.90625,0.0,0.0,0.0
1695310736876,1.1933594,0.6464844,-0.5595703,-62.34375,115.375,150.6875,0.0,0.0,0.0
1695310736916,-0.5263672,-0.0107421875,0.5136719,-217.25,180.625,109.71875,-37.5,-10.4375,-108.5
1695310736956,-1.3222656,-1.2929688,0.7324219,258.84375,-91.34375,2.375,0.0,0.0,0.0
1695310736996,-0.5078125,-0.859375,-1.3330078,-184.46875,-22.3125,-165.96875,0.0,0.0,0.0
1695310737036,-1.2919922,-0.005859375,-2.0019531,106.0625,-197.90625,-33.9375,0.0,0.0,0.0
1695310737076,0.2548828,-0.6035156,0.203125,-163.46875,87.8125,-23.5,0.0,0.0,0.0
1695310737116,-1.78125,0.9423828,-0.47070312,18.59375,23.21875,131.46875,0.0,0.0,0.0
1695310737156,-1.9697266,0.1953125,-0.3955078,204.375,96.21875,222.15625,0.0,0.0,0.0
1695310737196,-1.7832031,-0.5703125,0.5810547,-55.5625,93.0625,91.96875,0.0,0.0,0.0
1695310737236,-0.48339844,-0.2705078,-0.16308594,-24.375,29.9375,70.3125,0.0,0.0,0.0
1695310737276,-0.14550781,-1.2148438,0.23242188,-29.625,-5.28125,113.75,0.0,0.0,0.0
1695310737316,0.35058594,-0.8027344,0.0009765625,90.8125,-4.1875,26.84375,0.0,0.0,0.0
1695310737356,0.0234375,0.030273438,0.52246094,-20.71875,-24.5625,-77.53125,0.0,0.0,0.0
1695310737396,-0.1171875,0.3935547,0.3486328,-6.0,-97.125,-72.40625,-37.0625,4.25,-123.625
1695310737437,-0.5390625,-0.27246094,-0.24609375,-49.21875,-135.34375,-123.84375,0.0,0.0,0.0
1695310737477,-1.9697266,-1.3339844,0.049804688,100.375,-10.40625,-302.6875,0.0,0.0,0.0
1695310737517,-1.8388672,0.3388672,-0.12597656,-213.15625,-173.125,-69.65625,0.0,0.0,0.0
1695310737557,-1.9697266,-0.9345703,-0.115234375,-89.625,-27.625,-129.96875,0.0,0.0,0.0
1695310737597,-1.1728516,-0.49804688,-0.22949219,226.375,-58.6875,-52.25,0.0,0.0,0.0
1695310737637,-0.29101562,1.0332031,-0.51660156,155.0,-24.5625,7.96875,0.0,0.0,0.0
1695310737677,0.7753906,1.2080078,-0.36914062,56.1875,36.65625,83.78125,0.0,0.0,0.0
1695310737717,1.1308594,0.41992188,-0.640625,-111.21875,146.46875,157.03125,0.0,0.0,0.0
1695310737757,-0.86816406,-0.7675781,1.9970703,-127.15625,139.5,85.4375,0.0,0.0,0.0
1695310737797,-1.6064453,-1.8085938,-2.0019531,124.90625,48.9375,-77.65625,0.0,0.0,0.0
1695310737837,-1.3017578,0.9091797,1.9970703,-315.1875,-4.78125,-143.875,0.0,0.0,0.0
1695310737877,-1.3320312,0.14746094,-1.1894531,-131.125,-140.46875,-20.21875,0.0,0.0,0.0
1695310737917,0.078125,0.3701172,-0.4501953,110.46875,-30.90625,87.5625,-34.8125,-12.875,-117.625
1695310737957,-1.9697266,1.7451172,-0.14355469,-145.84375,128.28125,185.34375,0.0,0.0,0.0
1695310737997,-1.9697266,-1.9814453,0.5078125,153.78125,23.71875,238.6875,0.0,0.0,0.0
1695310738037,-1.1660156,-0.025390625,0.32714844,-16.1875,50.6875,95.125,0.0,0.0,0.0
1695310738077,-0.115234375,-0.20117188,-0.21875,-16.5625,58.4375,70.59375,0.0,0.0,0.0
1695310738117,-0.19921875,-1.0683594,-0.0048828125,-65.09375,-6.5,86.34375,0.0,0.0,0.0
1695310738157,0.39941406,-0.9316406,0.5263672,108.0625,15.28125,33.75,0.0,0.0,0.0
1695310738198,-0.037109375,0.234375,0.3642578,-26.09375,-51.78125,-99.625,0.0,0.0,0.0
1695310738238,-0.18847656,0.46191406,0.30566406,32.6875,-108.71875,-78.5,0.0,0.0,0.0
1695310738278,-1.1269531,-0.5029297,-0.21289062,-1.96875,-160.90625,-159.9375,0.0,0.0,0.0
1695310738318,-1.9697266,-0.6933594,0.17675781,20.4375,-48.71875,-248.125,0.0,0.0,0.0
1695310738358,-1.859375,0.7167969,-0.5654297,-113.53125,-133.6875,-71.0625,0.0,0.0,0.0
1695310738398,-1.9697266,-1.2470703,0.37109375,-55.3125,2.65625,-108.0625,-33.0,-10.0,-115.875
1695310738438,-1.21875,-0.3017578,-0.3515625,259.125,-62.40625,-18.875,0.0,0.0,0.0
1695310738478,-0.005859375,1.2080078,-0.5097656,128.78125,-37.0625,20.3125,0.0,0.0,0.0
1695310738518,1.0927734,1.2382812,-0.39160156,38.5625,49.09375,88.96875,0.0,0.0,0.0
1695310738558,0.79003906,0.087890625,-0.43066406,-137.34375,198.59375,186.09375,0.0,0.0,0.0
1695310738598,-1.0761719,-0.79003906,1.9970703,-43.15625,53.75,103.75,0.0,0.0,0.0
1695310738638,-1.3154297,-1.7158203,-1.4550781,96.125,94.03125,-65.125,0.0,0.0,0.0
1695310738678,-0.5097656,0.109375,-0.6894531,-238.96875,-112.5625,-160.125,0.0,0.0,0.0
1695310738718,-1.9267578,0.7548828,-1.9765625,-114.15625,-150.34375,-71.25,0.0,0.0,0.0
1695310738758,0.45703125,0.28027344,-0.5410156,79.8125,-26.625,8.21875,0.0,0.0,0.0
1695310738798,-1.9697266,1.8164062,-0.5703125,-102.5,0.9375,134.8125,0.0,0.0,0.0
1695310738838,-1.9697266,-0.0078125,0.09667969,118.03125,153.53125,223.0,0.0,0.0,0.0
1695310738878,-1.5605469,-1.4023438,0.40625,-104.21875,80.59375,166.1875,0.0,0.0,0.0
1695310738918,-0.58984375,-0.3330078,-0.2421875,-61.59375,42.28125,67.625,-33.125,5.5625,-125.125
1695310738959,0.0068359375,-1.1738281,0.42578125,-71.1875,-40.0625,91.78125,0.0,0.0,0.0
1695310738999,0.05859375,-1.1855469,-0.18847656,45.21875,-37.0625,6.21875,0.0,0.0,0.0
1695310739039,0.31054688,0.0078125,0.3564453,20.125,0.21875,-87.34375,0.0,0.0,0.0
1695310739079,-0.24707031,0.57910156,0.020507812,16.09375,-67.09375,-66.40625,0.0,0.0,0.0
1695310739119,-0.0234375,-0.14160156,-0.13671875,-10.21875,-118.5,-69.78125,0.0,0.0,0.0
1695310739159,-1.9697266,-0.92089844,-0.16113281,28.125,-86.15625,-213.28125,0.0,0.0,0.0
1695310739199,-1.9697266,0.71972656,0.119140625,104.15625,-33.21875,-101.09375,0.0,0.0,0.0
1695310739239,-1.4775391,0.22558594,-0.2939453,-254.0,11.03125,-150.21875,0.0,0.0,0.0
1695310739279,-1.2871094,-0.484375,0.078125,-6.78125,-5.53125,-65.8125,0.0,0.0,0.0
1695310739319,-0.98046875,0.20996094,-0.22363281,91.46875,-12.71875,1.09375,0.0,0.0,0.0
1695310739359,0.005859375,0.7011719,-0.3046875,71.5625,9.5625,19.875,0.0,0.0,0.0
1695310739399,0.68652344,1.0224609,-0.29003906,-18.4375,91.84375,60.09375,-35.875,-11.375,-112.6875
1695310739439,0.26660156,-0.12109375,0.4951172,-147.28125,130.34375,134.5625,0.0,0.0,0.0
1695310739479,-0.3515625,-1.6289062,0.107421875,210.25,-109.03125,25.625,0.0,0.0,0.0
1695310739519,-0.8730469,-1.2167969,-0.44628906,-240.1875,20.84375,-182.4375,0.0,0.0,0.0
1695310739559,-1.3837891,2.0175781,0.3671875,-64.46875,106.65625,-156.8125,0.0,0.0,0.0
1695310739599,-1.1464844,-1.2685547,1.5478516,103.9375,85.1875,10.1875,0.0,0.0,0.0
1695310739639,-0.64746094,1.2802734,-0.5029297,103.375,-22.5625,14.9375,0.0,0.0,0.0
1695310739679,-1.9697266,1.1953125,0.26660156,10.90625,152.125,94.34375,0.0,0.0,0.0
1695310739720,-1.8896484,-0.8671875,-0.2841797,177.96875,41.40625,199.25,0.0,0.0,0.0
1695310739760,-0.92089844,-0.4091797,0.1640625,-71.6875,95.5625,146.40625,0.0,0.0,0.0
1695310739800,-1.0498047,0.6152344,0.25195312,-34.1875,50.625,74.625,0.0,0.0,0.0
1695310739840,-0.2607422,-0.6376953,0.2548828,-23.28125,-30.78125,123.875,0.0,0.0,0.0
1695310739880,-0.029296875,-0.7001953,-0.061523438,-61.84375,-40.1875,32.625,0.0,0.0,0.0
1695310739920,-0.41308594,-0.21679688,0.12988281,-31.34375,-43.375,-38.34375,-35.6875,8.5625,-121.25
1695310739960,-0.3515625,-0.55566406,0.23535156,-6.125,-92.25,-43.71875,0.0,0.0,0.0
1695310740000,-1.4443359,-0.50390625,-0.28515625,89.65625,-114.09375,-152.40625,0.0,0.0,0.0
1695310740040,-1.9697266,-0.49023438,-0.34570312,245.78125,-20.65625,-165.84375,0.0,0.0,0.0
1695310740080,-1.9296875,0.83496094,-0.48828125,-161.9375,-107.03125,-96.03125,0.0,0.0,0.0
1695310740120,-1.1826172,-0.024414062,0.12207031,-17.40625,20.46875,-108.65625,0.0,0.0,0.0
1695310740160,-1.0410156,-0.4892578,-0.3720703,181.125,3.625,-77.53125,0.0,0.0,0.0
1695310740200,-1.0332031,-0.068359375,-0.65527344,171.1875,15.78125,-71.0,0.0,0.0,0.0
1695310740240,-0.62109375,0.2529297,-0.49804688,279.9375,-20.96875,-65.5,0.0,0.0,0.0
1695310740280,0.036132812,0.71875,-0.26953125,263.21875,-36.21875,-60.4375,0.0,0.0,0.0
1695310740320,-0.28125,0.032226562,0.12890625,187.0,55.5,10.46875,0.0,0.0,0.0
1695310740360,-0.26367188,-0.26171875,0.064453125,-88.9375,96.21875,70.71875,0.0,0.0,0.0
1695310740400,-0.11425781,0.076171875,-0.33789062,-109.9375,28.125,23.59375,0.0,0.0,0.0
1695310740440,-0.1953125,-1.7783203,0.8535156,-27.96875,148.09375,24.8125,0.0,0.0,0.0
1695310740481,-1.9121094,-0.9345703,-0.7158203,-85.46875,-13.03125,31.53125,0.0,0.0,0.0
1695310740521,-0.29785156,0.6972656,0.14941406,19.625,-12.1875,76.65625,0.0,0.0,0.0
1695310740561,-1.9697266,0.41210938,-0.44140625,-36.03125,39.46875,211.03125,0.0,0.0,0.0
1695310740601,-1.9697266,-1.7509766,-0.15234375,44.65625,49.15625,168.0,0.0,0.0,0.0
1695310740641,-1.9697266,-0.40820312,0.7392578,-35.34375,101.46875,135.1875,0.0,0.0,0.0
1695310740681,-0.9501953,-0.045898438,0.05078125,-50.8125,41.40625,45.8125,0.0,0.0,0.0
1695310740721,-0.19140625,-0.32617188,0.072265625,-45.4375,33.34375,53.21875,0.0,0.0,0.0
1695310740761,0.018554688,-0.9511719,-0.11035156,52.96875,-17.125,18.71875,0.0,0.0,0.0
1695310740801,0.2861328,-0.8984375,0.26171875,59.5,-25.71875,-39.9375,-35.875,23.75,-98.875
1695310740841,-0.3564453,0.18652344,0.3232422,10.25,-56.375,-129.96875,0.0,0.0,0.0
1695310740881,-0.6386719,0.29589844,0.13085938,15.78125,-110.625,-129.03125,0.0,0.0,0.0
1695310740921,-1.9697266,-0.40820312,-0.01953125,64.6875,-91.21875,-275.09375,0.0,0.0,0.0
1695310740961,-1.9697266,0.024414062,0.10253906,-217.0625,-86.625,-83.4375,0.0,0.0,0.0
1695310741001,-1.9697266,-0.9580078,-0.2939453,-61.78125,-1.75,-157.84375,0.0,0.0,0.0
1695310741041,-1.6201172,-0.71972656,-0.28222656,233.375,-66.0,-54.40625,0.0,0.0,0.0
1695310741081,-0.39941406,0.89941406,-0.5722656,200.46875,-77.3125,13.59375,0.0,0.0,0.0
1695310741121,0.68066406,1.2255859,-0.37109375,89.15625,-12.84375,61.375,0.0,0.0,0.0
1695310741161,1.0078125,0.73535156,-0.50097656,-82.0625,128.875,136.03125,0.0,0.0,0.0
1695310741201,-0.35546875,-0.234375,0.25878906,-159.875,196.1875,120.40625,0.0,0.0,0.0
1695310741242,-1.0478516,-1.1826172,1.2636719,145.375,-102.625,15.0625,0.0,0.0,0.0
1695310741282,-0.66796875,-0.76953125,-1.4365234,11.8125,-33.40625,-100.59375,0.0,0.0,0.0
1695310741322,-1.9697266,0.65722656,-1.4082031,-117.15625,-14.75,-95.34375,-37.625,8.0,-92.625
1695310741362,0.13769531,0.14550781,-0.7080078,-22.96875,-25.78125,-18.75,0.0,0.0,0.0
1695310741402,-1.8085938,1.0986328,-0.28515625,-45.78125,48.375,163.0625,0.0,0.0,0.0
1695310741442,-1.9697266,-0.5136719,0.5703125,104.96875,72.0,234.3125,0.0,0.0,0.0
1695310741482,-1.9052734,-0.72753906,0.6484375,-123.5625,89.8125,128.40625,0.0,0.0,0.0
1695310741522,-0.74609375,-0.6611328,-0.11425781,-57.15625,11.375,83.1875,0.0,0.0,0.0
1695310741562,-0.038085938,-0.5253906,0.15820312,-32.0625,36.84375,70.0625,0.0,0.0,0.0
1695310741602,-0.091796875,-0.9199219,-0.12695312,62.90625,-12.59375,12.0,0.0,0.0,0.0
1695310741642,0.2626953,-0.61621094,0.4267578,47.96875,18.96875,-50.0625,0.0,0.0,0.0
1695310741682,-0.22070312,0.37304688,0.26757812,20.0,-67.40625,-114.15625,0.0,0.0,0.0
1695310741722,-0.36816406,0.030273438,-0.078125,19.03125,-111.21875,-100.0,0.0,0.0,0.0
1695310741762,-1.9697266,-0.5107422,-0.02734375,125.21875,-90.0625,-256.125,0.0,0.0,0.0
1695310741802,-1.9697266,0.35351562,0.39257812,-241.28125,-89.6875,-96.34375,-35.25,7.375,-90.0625
1695310741842,-1.9697266,-0.8300781,-0.4189453,-126.53125,40.625,-149.0625,0.0,0.0,0.0
1695310741882,-1.5761719,-0.6953125,-0.107421875,143.90625,-31.9375,-67.15625,0.0,0.0,0.0
1695310741922,-0.7988281,0.43164062,-0.31445312,238.15625,-59.78125,4.0625,0.0,0.0,0.0
1695310741962,0.44140625,1.4638672,-0.14453125,86.84375,-12.59375,40.625,0.0,0.0,0.0
1695310742003,0.76464844,0.9482422,-0.54296875,-73.6875,126.5625,145.96875,0.0,0.0,0.0
1695310742043,-0.41308594,-0.70214844,0.12695312,-186.1875,206.15625,146.84375,0.0,0.0,0.0
1695310742083,-1.0195312,-1.4296875,0.46484375,79.8125,-83.40625,2.65625,0.0,0.0,0.0
1695310742123,-0.40722656,-0.49414062,-1.125,62.90625,-17.90625,-73.3125,0.0,0.0,0.0
1695310742163,-1.9697266,2.0175781,-2.0019531,-244.53125,175.03125,-134.21875,0.0,0.0,0.0
1695310742203,-1.3310547,-1.3886719,1.9970703,-100.125,254.0625,7.4375,0.0,0.0,0.0
1695310742243,-0.11230469,0.71191406,-0.61328125,76.40625,17.0625,83.34375,0.0,0.0,0.0
1695310742283,-1.9697266,1.0371094,-0.4892578,-146.375,22.875,156.40625,0.0,0.0,0.0
1695310742323,-1.9697266,-1.9814453,0.5361328,13.59375,26.84375,261.15625,-37.9375,9.8125,-95.75
1695310742363,-1.1494141,0.453125,0.08105469,16.59375,4.71875,92.28125,0.0,0.0,0.0
1695310742403,-0.16503906,-0.21289062,-0.27441406,-30.15625,36.78125,75.71875,0.0,0.0,0.0
1695310742443,0.0029296875,-1.5,0.056640625,16.03125,-2.96875,114.0,0.0,0.0,0.0
1695310742483,0.28125,-0.94140625,0.17773438,114.71875,19.5625,3.28125,0.0,0.0,0.0
1695310742523,-0.30859375,0.37402344,0.45703125,12.875,-53.96875,-130.8125,0.0,0.0,0.0
1695310742563,-0.16210938,0.3486328,0.030273438,5.28125,-120.28125,-90.53125,0.0,0.0,0.0
1695310742603,-1.9697266,-0.39941406,-0.09277344,53.8125,-158.84375,-191.90625,0.0,0.0,0.0
1695310742643,-1.9697266,0.45703125,0.083984375,2.125,-58.6875,-128.25,0.0,0.0,0.0
1695310742683,-1.9697266,0.15234375,-0.84472656,-186.1875,-26.34375,-132.875,0.0,0.0,0.0
1695310742723,-1.7802734,-1.1972656,0.2705078,-54.78125,20.46875,-76.5,0.0,0.0,0.0
1695310742764,-1.0996094,0.083984375,-0.3876953,245.03125,-47.8125,-11.78125,0.0,0.0,0.0
1695310742804,0.171875,1.1708984,-0.25,127.3125,-39.28125,30.125,-33.75,2.5625,-84.9375
1695310742844,1.3408203,1.4375,-0.44628906,-9.0,105.1875,130.28125,0.0,0.0,0.0
1695310742884,-0.19335938,-0.57714844,0.005859375,-147.96875,202.90625,126.625,0.0,0.0,0.0
1695310742924,-0.953125,-1.2490234,1.5869141,86.34375,-46.78125,28.3125,0.0,0.0,0.0
1695310742964,-1.1181641,-1.0947266,-0.7988281,12.625,54.40625,-93.8125,0.0,0.0,0.0
1695310743004,-1.0800781,0.6904297,0.35546875,-174.21875,-26.5625,-133.9375,0.0,0.0,0.0
1695310743044,-1.0751953,-0.61621094,1.9970703,95.5,-49.84375,2.78125,0.0,0.0,0.0
1695310743084,-0.51660156,1.4404297,-0.020507812,44.96875,-24.375,64.5625,0.0,0.0,0.0
1695310743124,-1.9697266,1.3828125,-0.5,-112.0625,12.90625,132.4375,0.0,0.0,0.0
1695310743164,-1.9697266,-1.8662109,-0.2705078,-11.8125,60.875,267.4375,0.0,0.0,0.0
1695310743204,-1.0986328,-0.08691406,0.31933594,-92.0,58.1875,98.9375,0.0,0.0,0.0
1695310743244,-0.5419922,-0.35839844,-0.10449219,-32.25,23.78125,74.21875,0.0,0.0,0.0
1695310743284,-0.17285156,-1.0068359,0.038085938,-17.65625,-17.71875,101.1875,-38.375,22.375,-96.8125
1695310743324,0.16699219,-0.94628906,0.0625,70.125,7.125,4.0,0.0,0.0,0.0
1695310743364,0.18164062,-0.42285156,0.37890625,40.9375,-40.1875,-87.125,0.0,0.0,0.0
1695310743404,-0.36621094,0.41308594,0.26757812,14.375,-91.34375,-119.875,0.0,0.0,0.0
1695310743444,-0.7734375,0.037109375,-0.07421875,-1.65625,-130.03125,-132.28125,0.0,0.0,0.0
1695310743484,-1.9697266,-0.70410156,-0.13671875,49.71875,-21.5,-255.375,0.0,0.0,0.0
1695310743525,-1.6269531,0.08691406,0.076171875,-255.5,-35.65625,-70.625,0.0,0.0,0.0
1695310743565,-1.9697266,-0.93066406,-0.14160156,-87.78125,22.375,-105.65625,0.0,0.0,0.0
1695310743605,-1.3134766,-0.17773438,-0.18164062,183.40625,-45.375,-27.0,0.0,0.0,0.0
1695310743645,-0.3564453,0.71484375,-0.34472656,179.59375,-42.25,27.03125,0.0,0.0,0.0
1695310743685,0.71875,1.2138672,-0.3330078,25.125,39.15625,83.46875,0.0,0.0,0.0
1695310743725,0.5253906,0.47070312,-0.36035156,-114.40625,182.46875,186.75,0.0,0.0,0.0
1695310743765,-0.8251953,-1.0302734,1.9970703,-4.78125,-25.96875,101.4375,0.0,0.0,0.0
1695310743805,-1.0996094,-1.4794922,-1.21875,78.40625,107.03125,-50.375,-36.4375,11.0,-89.75
1695310743845,-0.107421875,0.07324219,-0.97265625,-50.25,-87.4375,-129.71875,0.0,0.0,0.0
1695310743885,-1.9697266,1.0585938,0.4189453,161.375,-380.71875,-46.84375,0.0,0.0,0.0
1695310743925,-0.28320312,-1.0029297,0.08496094,-201.6875,19.125,-23.875,0.0,0.0,0.0
1695310743965,-1.3222656,0.72558594,-0.39160156,161.90625,-33.59375,80.0625,0.0,0.0,0.0
1695310744005,-1.9697266,0.36132812,-0.703125,22.0625,69.0,200.53125,0.0,0.0,0.0
1695310744045,-1.9697266,-1.5732422,0.25097656,-215.65625,60.6875,166.625,0.0,0.0,0.0
1695310744085,-1.2431641,0.036132812,0.21289062,18.15625,35.4375,102.21875,0.0,0.0,0.0
1695310744125,-0.32226562,-0.2578125,-0.0068359375,-6.4375,19.375,83.78125,0.0,0.0,0.0
1695310744165,-0.02734375,-1.1396484,0.059570312,-7.21875,-29.3125,81.96875,0.0,0.0,0.0
1695310744205,0.22753906,-0.859375,0.078125,83.78125,-6.3125,-15.15625,0.0,0.0,0.0
1695310744245,-0.40234375,0.16210938,0.43554688,-20.21875,-36.59375,-122.75,0.0,0.0,0.0
1695310744286,-0.25878906,0.3017578,0.08886719,38.1875,-110.5,-89.0,-37.375,20.875,-94.125
1695310744326,-1.1591797,-0.20507812,-0.203125,5.71875,-125.9375,-137.78125,0.0,0.0,0.0
1695310744366,-1.9697266,-0.4951172,0.123046875,22.375,-45.125,-214.0,0.0,0.0,0.0
1695310744406,-1.4599609,0.484375,-0.41308594,-115.125,-109.40625,-84.1875,0.0,0.0,0.0
1695310744446,-1.8974609,-0.6591797,0.18066406,-110.5625,-1.90625,-80.28125,0.0,0.0,0.0
1695310744486,-1.1845703,-0.059570312,-0.25390625,85.625,-12.0,-15.21875,0.0,0.0,0.0
1695310744526,-0.5253906,0.58984375,-0.35058594,76.28125,16.75,21.03125,0.0,0.0,0.0
1695310744566,0.6533203,1.0644531,-0.25,-40.65625,63.6875,61.15625,0.0,0.0,0.0
1695310744606,0.26171875,-0.3828125,-0.2861328,-87.125,174.59375,160.15625,0.0,0.0,0.0
1695310744646,-0.66796875,-1.546875,1.2402344,73.40625,-27.625,78.71875,0.0,0.0,0.0
1695310744686,-0.7451172,-0.7939453,-0.31054688,118.8125,6.9375,-83.28125,0.0,0.0,0.0
1695310744726,-0.9550781,0.8496094,0.41503906,-104.75,-60.75,-162.3125,0.0,0.0,0.0
1695310744766,-0.43945312,0.7089844,-1.8232422,-31.5,-52.46875,-45.65625,0.0,0.0,0.0
1695310744806,-0.15234375,0.49023438,-0.22753906,96.65625,-12.125,61.75,-36.125,-1.0,-91.5625
1695310744846,-1.9697266,1.0996094,-0.66015625,23.34375,-77.34375,130.71875,0.0,0.0,0.0
1695310744886,-1.7900391,-1.1376953,-0.10546875,-36.53125,92.125,234.90625,0.0,0.0,0.0
1695310744926,-1.4042969,-0.171875,0.19921875,-11.0,51.125,135.65625,0.0,0.0,0.0
1695310744966,-0.9638672,0.21972656,0.11816406,2.65625,9.1875,60.96875,0.0,0.0,0.0
1695310745006,-0.07519531,-0.3515625,-0.10253906,-18.9375,-8.8125,79.8125,0.0,0.0,0.0
1695310745047,0.09667969,-1.3535156,0.18652344,53.5,-29.6875,66.5,0.0,0.0,0.0
1695310745087,-0.08984375,-0.6533203,0.42871094,-29.8125,-1.75,-99.625,0.0,0.0,0.0
1695310745127,-0.33398438,0.68359375,0.12597656,51.5625,-109.09375,-112.0625,0.0,0.0,0.0
1695310745167,-1.1748047,0.0009765625,-0.30078125,49.3125,-171.59375,-126.0,0.0,0.0,0.0
1695310745207,-1.9697266,-0.4765625,0.06347656,22.3125,-63.0625,-188.75,0.0,0.0,0.0
1695310745247,-1.859375,1.03125,-0.2841797,-45.90625,-132.71875,-96.875,0.0,0.0,0.0
1695310745287,-1.7666016,-0.34179688,-0.038085938,-189.46875,-21.15625,-87.0,-34.1875,5.0,-85.25
1695310745327,-1.0751953,-0.24707031,-0.09667969,95.125,-24.4375,-41.75,0.0,0.0,0.0
1695310745367,-0.4111328,0.6435547,-0.51171875,79.6875,6.5625,18.84375,0.0,0.0,0.0
1695310745407,0.40625,0.8417969,-0.12695312,-6.25,73.21875,65.21875,0.0,0.0,0.0
1695310745447,-0.1484375,-0.2529297,0.10058594,34.40625,103.25,122.46875,0.0,0.0,0.0
1695310745487,-0.54589844,-1.0654297,0.62597656,220.625,-53.375,48.875,0.0,0.0,0.0
1695310745527,-0.56347656,-1.0107422,-0.56933594,-65.25,11.3125,-110.0625,0.0,0.0,0.0
1695310745567,-1.9697266,2.0175781,1.9970703,62.78125,282.9375,-147.125,0.0,0.0,0.0
1695310745607,-1.9697266,-0.14453125,0.59765625,241.5,-142.125,-33.9375,0.0,0.0,0.0
1695310745647,0.009765625,0.77441406,0.30859375,-46.96875,7.3125,24.53125,0.0,0.0,0.0
1695310745687,-1.9697266,0.296875,-0.24023438,158.96875,67.125,54.125,0.0,0.0,0.0
1695310745727,-0.9375,-0.26757812,-0.15332031,40.09375,39.09375,89.28125,0.0,0.0,0.0
1695310745767,-1.3828125,-0.0234375,0.026367188,-18.6875,56.1875,71.40625,0.0,0.0,0.0
1695310745808,-0.82128906,-0.46484375,0.15136719,11.40625,37.75,89.53125,-36.875,13.6875,-94.125
1695310745848,-0.55371094,-0.3125,-0.041992188,72.0,18.09375,72.3125,0.0,0.0,0.0
1695310745888,-0.5498047,-0.46679688,0.34960938,29.78125,3.875,45.46875,0.0,0.0,0.0
1695310745928,-0.515625,-0.7607422,0.6269531,89.21875,-73.09375,-36.28125,0.0,0.0,0.0
1695310745968,-1.9697266,0.46972656,-0.6015625,100.6875,-56.25,-131.3125,0.0,0.0,0.0
1695310746008,-1.4697266,-0.3466797,-0.43652344,-37.25,5.28125,-108.34375,0.0,0.0,0.0
1695310746048,-1.9697266,-0.30859375,0.11425781,90.5,-18.15625,-173.0,0.0,0.0,0.0
1695310746088,-1.8574219,-0.3203125,0.17773438,97.40625,-28.65625,-170.3125,-34.8125,-4.9375,-115.875
1695310746128,-1.296875,-0.20410156,-0.068359375,132.4375,-19.875,-95.53125,0.0,0.0,0.0
1695310746168,-0.5761719,0.15722656,-0.020507812,135.34375,-32.75,-41.53125,0.0,0.0,0.0
1695310746208,0.25390625,0.64746094,-0.10253906,55.09375,-4.3125,15.4375,0.0,0.0,0.0
1695310746248,0.45117188,0.4560547,-0.28027344,-42.25,63.03125,89.65625,0.0,0.0,0.0
1695310746288,0.13574219,-0.14648438,-0.021484375,-34.1875,111.4375,97.6875,0.0,0.0,0.0
1695310746328,-0.22558594,-0.21777344,0.6533203,-8.25,23.71875,59.25,0.0,0.0,0.0
1695310746368,-0.5546875,0.13476562,-0.7714844,-120.3125,33.53125,6.46875,0.0,0.0,0.0
1695310746408,-1.9697266,-0.15136719,-1.3291016,-168.59375,-45.3125,-59.71875,0.0,0.0,0.0
1695310746448,-0.056640625,0.6513672,-0.4951172,78.34375,-67.78125,-28.46875,0.0,0.0,0.0
1695310746488,-1.0957031,1.2841797,-0.13769531,-37.125,15.71875,110.6875,0.0,0.0,0.0
1695310746528,-1.9697266,-1.0576172,-0.4013672,87.3125,7.25,194.9375,0.0,0.0,0.0
1695310746569,-1.5576172,-0.5644531,-0.29785156,-46.46875,95.5625,188.53125,0.0,0.0,0.0
1695310746609,-1.7558594,-0.20117188,0.29492188,22.9375,55.5,135.53125,-34.625,7.375,-125.125
1695310746649,-0.6621094,-0.38964844,0.09863281,-6.59375,11.5,67.4375,0.0,0.0,0.0
1695310746689,-0.19140625,-0.44140625,-0.06640625,12.8125,2.53125,40.375,0.0,0.0,0.0
1695310746729,0.08886719,-0.84277344,0.13085938,61.4375,-27.5,16.84375,0.0,0.0,0.0
1695310746769,0.2421875,-0.75683594,0.24414062,60.34375,-28.71875,-64.28125,0.0,0.0,0.0
1695310746809,-0.45996094,0.3798828,0.20117188,-13.5625,-69.71875,-136.5625,0.0,0.0,0.0
1695310746849,-1.4091797,0.08300781,-0.052734375,34.65625,-127.15625,-186.78125,0.0,0.0,0.0
1695310746889,-1.9697266,0.061523438,-0.056640625,-54.28125,-33.53125,-262.46875,0.0,0.0,0.0
1695310746929,-1.5976562,0.0703125,-0.20410156,-7.46875,-73.875,-98.28125,0.0,0.0,0.0
1695310746969,-1.9697266,-0.8808594,0.22363281,-106.84375,1.8125,-120.625,0.0,0.0,0.0
1695310747009,-1.4404297,-0.02734375,-0.13183594,157.6875,-56.5,-29.375,0.0,0.0,0.0
1695310747049,-0.39746094,0.56933594,-0.3076172,120.21875,-31.46875,32.09375,0.0,0.0,0.0
1695310747089,0.4951172,0.78515625,-0.34570312,30.3125,24.09375,89.78125,-37.625,-13.9375,-112.125
1695310747129,0.30078125,0.0234375,-0.35253906,-91.4375,177.71875,163.1875,0.0,0.0,0.0
1695310747169,-0.82714844,-1.0361328,1.9921875,-147.78125,51.71875,104.71875,0.0,0.0,0.0
1695310747209,-0.82421875,-1.3027344,-1.0292969,114.78125,44.78125,-40.90625,0.0,0.0,0.0
1695310747249,-0.4794922,-0.18066406,-0.64746094,3.03125,-63.4375,-120.125,0.0,0.0,0.0
1695310747289,-1.1015625,0.72265625,-0.32714844,-153.75,-66.4375,-106.9375,0.0,0.0,0.0
1695310747330,0.47070312,0.38671875,-0.40527344,-35.125,-20.0,32.9375,0.0,0.0,0.0
1695310747370,-1.9697266,1.2597656,-0.13085938,-145.59375,-5.21875,132.8125,0.0,0.0,0.0
1695310747410,-1.9697266,-0.10449219,-0.23144531,285.5,0.09375,227.78125,0.0,0.0,0.0
1695310747450,-1.5117188,-0.9091797,-0.31445312,-42.4375,101.84375,169.1875,0.0,0.0,0.0
1695310747490,-0.84765625,-0.22265625,0.171875,27.5625,52.28125,126.15625,0.0,0.0,0.0
1695310747530,-0.45410156,-0.42285156,0.47460938,45.9375,34.65625,100.625,0.0,0.0,0.0
1695310747570,-0.39453125,-1.1103516,-0.27246094,-19.84375,-55.8125,41.3125,0.0,0.0,0.0
1695310747610,0.37597656,-0.6816406,0.16113281,30.3125,-5.21875,-35.59375,-36.875,14.4375,-127.375
1695310747650,-0.21875,0.015625,0.40234375,32.6875,-67.28125,-136.90625,0.0,0.0,0.0
1695310747690,-0.5722656,0.07128906,-0.20800781,41.4375,-130.875,-134.0,0.0,0.0,0.0
1695310747730,-1.9697266,-0.6796875,0.0087890625,25.5,17.90625,-303.0,0.0,0.0,0.0
1695310747770,-1.9697266,0.828125,-0.053710938,74.8125,-121.1875,-75.34375,0.0,0.0,0.0
1695310747810,-1.9697266,-0.18066406,-0.29003906,-264.3125,-7.15625,-127.59375,0.0,0.0,0.0
1695310747850,-1.6357422,-0.3466797,0.08984375,106.5,-29.875,-58.5,0.0,0.0,0.0
1695310747890,-0.90527344,0.53515625,-0.42089844,163.3125,-42.5,11.53125,0.0,0.0,0.0
1695310747930,0.2763672,0.94140625,-0.15820312,17.125,43.4375,31.0,0.0,0.0,0.0
1695310747970,0.7363281,1.0810547,-0.57910156,-76.1875,158.65625,159.03125,0.0,0.0,0.0
1695310748010,-0.57421875,-0.7636719,1.1591797,-124.78125,136.5625,169.46875,0.0,0.0,0.0
1695310748050,-1.5595703,-1.9814453,-1.7314453,152.9375,36.21875,-59.65625,0.0,0.0,0.0
1695310748091,-0.17285156,-0.171875,-1.0585938,-137.21875,-22.5,-149.84375,-36.625,-3.125,-119.3125
1695310748131,-1.9697266,2.0175781,1.9970703,368.40625,580.65625,-294.3125,0.0,0.0,0.0
1695310748171,-1.9697266,-0.15136719,-1.5703125,40.75,-142.46875,14.9375,0.0,0.0,0.0
1695310748211,0.78027344,0.7783203,0.86035156,-235.6875,22.6875,123.40625,0.0,0.0,0.0
1695310748251,-1.9697266,0.90234375,-0.48828125,39.59375,-24.875,20.75,0.0,0.0,0.0
1695310748291,-1.5097656,-0.5214844,0.4189453,405.8125,120.46875,238.03125,0.0,0.0,0.0
1695310748331,-1.6699219,-0.39746094,1.4101562,-330.15625,166.53125,83.0625,0.0,0.0,0.0
1695310748371,-0.9003906,-0.11816406,0.047851562,-50.8125,12.78125,96.96875,0.0,0.0,0.0
1695310748411,-0.20507812,-0.91015625,-0.053710938,30.6875,-17.46875,109.375,0.0,0.0,0.0
1695310748451,0.29003906,-1.0703125,0.037109375,102.9375,-9.90625,48.625,0.0,0.0,0.0
1695310748491,-0.125,-0.20703125,0.5761719,-31.625,-31.03125,-107.25,0.0,0.0,0.0
1695310748531,-0.4375,0.62890625,0.28808594,48.125,-106.78125,-111.46875,0.0,0.0,0.0
1695310748571,-0.91503906,-0.040039062,-0.09277344,8.34375,-150.90625,-125.25,0.0,0.0,0.0
1695310748611,-1.9697266,-0.69628906,-0.0625,-25.34375,-36.59375,-242.375,-38.5625,0.9375,-118.125
1695310748651,-1.5458984,0.4921875,-0.41503906,-71.5,-135.46875,-34.75,0.0,0.0,0.0
1695310748691,-1.9697266,-0.7158203,-0.2529297,-180.5625,-3.75,-95.65625,0.0,0.0,0.0
1695310748731,-1.4794922,-0.16503906,-0.16796875,79.34375,-14.75,-23.4375,0.0,0.0,0.0
1695310748771,-0.7246094,0.38476562,-0.36035156,125.65625,-18.46875,16.15625,0.0,0.0,0.0
1695310748811,0.5097656,1.1113281,-0.01953125,22.3125,21.03125,36.78125,0.0,0.0,0.0
1695310748852,0.54296875,0.62109375,-0.45898438,-46.84375,139.5,173.5,0.0,0.0,0.0
1695310748892,-0.61035156,-1.09375,1.9707031,-100.0,115.375,118.6875,0.0,0.0,0.0
1695310748932,-1.2734375,-1.3271484,-1.4121094,85.0,39.78125,-80.875,0.0,0.0,0.0
1695310748972,-0.265625,0.17773438,-0.87597656,-89.6875,-77.3125,-143.6875,0.0,0.0,0.0
1695310749012,-1.9697266,0.5205078,-2.0019531,-52.03125,-136.375,-77.21875,0.0,0.0,0.0
1695310749052,-0.0009765625,0.54296875,-0.4189453,36.1875,-71.4375,-37.78125,0.0,0.0,0.0
1695310749092,-1.9697266,1.8613281,-0.48242188,-101.21875,32.5,116.4375,-34.8125,-8.8125,-120.0625
1695310749132,-1.9697266,0.36621094,-0.7001953,64.5,69.625,221.0,0.0,0.0,0.0
1695310749172,-1.9697266,-1.8583984,0.16015625,54.59375,82.90625,210.6875,0.0,0.0,0.0
1695310749212,-1.1621094,0.20605469,0.328125,-35.125,43.0625,92.28125,0.0,0.0,0.0
1695310749252,-0.328125,-0.33789062,0.028320312,1.75,17.375,92.34375,0.0,0.0,0.0
1695310749292,-0.19335938,-1.1611328,-0.08886719,-15.75,-56.25,72.875,0.0,0.0,0.0
1695310749332,0.33789062,-0.9501953,0.064453125,91.59375,-10.59375,-15.21875,0.0,0.0,0.0
1695310749372,-0.33203125,0.09863281,0.5888672,-30.0,-62.46875,-157.78125,0.0,0.0,0.0
1695310749412,-0.3466797,0.34179688,-0.140625,5.28125,-117.9375,-131.4375,0.0,0.0,0.0
1695310749452,-1.9697266,-0.3359375,0.2783203,35.625,-87.25,-259.0,0.0,0.0,0.0
1695310749492,-1.9697266,0.5390625,0.05078125,-0.09375,-49.46875,-101.875,0.0,0.0,0.0
1695310749532,-1.9697266,-0.11621094,-0.20214844,-167.0625,-18.8125,-130.25,0.0,0.0,0.0
1695310749572,-1.5751953,-0.2685547,0.15136719,55.09375,-11.8125,-54.28125,0.0,0.0,0.0
1695310749613,-0.9121094,0.21484375,-0.3095703,139.21875,-24.0625,22.5625,-33.125,-10.9375,-113.625
1695310749653,-0.078125,0.79785156,-0.2529297,55.28125,30.5625,47.46875,0.0,0.0,0.0
1695310749693,0.7939453,1.0976562,-0.4267578,-49.875,124.0625,102.71875,0.0,0.0,0.0
1695310749733,-0.40625,-0.56933594,0.5029297,-92.53125,118.875,145.5,0.0,0.0,0.0
1695310749773,-1.0253906,-1.9814453,-0.94140625,129.3125,-34.5625,-38.28125,0.0,0.0,0.0
1695310749813,-0.56152344,-0.60253906,-0.6542969,-139.40625,17.96875,-140.03125,0.0,0.0,0.0
1695310749853,-1.9697266,0.9501953,1.9970703,68.9375,21.34375,-154.3125,0.0,0.0,0.0
1695310749893,0.39941406,0.82714844,-0.6669922,-51.21875,-9.3125,-25.21875,0.0,0.0,0.0
1695310749933,-1.9697266,1.1845703,-0.3720703,-98.84375,12.5,88.90625,0.0,0.0,0.0
1695310749973,-1.9697266,0.38964844,-0.55566406,142.25,75.71875,233.375,0.0,0.0,0.0
1695310750013,-1.9697266,-1.8769531,0.03515625,88.84375,36.84375,239.65625,0.0,0.0,0.0
1695310750053,-1.4189453,0.025390625,0.8203125,-130.4375,94.34375,86.59375,0.0,0.0,0.0
1695310750093,-0.5185547,-0.3935547,-0.0068359375,-8.75,17.84375,93.3125,-33.0,6.5,-125.625
1695310750133,-0.13378906,-0.95996094,0.09277344,-19.78125,-32.4375,89.53125,0.0,0.0,0.0
1695310750173,0.16699219,-1.0712891,0.0068359375,86.65625,-23.65625,10.375,0.0,0.0,0.0
1695310750213,0.12597656,-0.24902344,0.31933594,17.5625,-43.96875,-111.53125,0.0,0.0,0.0
1695310750253,-0.36132812,0.44140625,0.16699219,23.53125,-92.125,-134.0,0.0,0.0,0.0
1695310750293,-1.5859375,0.022460938,-0.17871094,-3.375,-113.78125,-165.53125,0.0,0.0,0.0
1695310750333,-1.9697266,0.6425781,0.24804688,-4.40625,-8.9375,-199.53125,0.0,0.0,0.0
1695310750374,-1.6044922,0.2763672,-0.47460938,-105.78125,-42.1875,-105.53125,0.0,0.0,0.0
1695310750414,-1.9697266,-0.8046875,-0.026367188,-125.75,18.84375,-72.71875,0.0,0.0,0.0
1695310750454,-1.0849609,0.39453125,-0.27929688,101.0625,-25.53125,-10.03125,0.0,0.0,0.0
1695310750494,-0.359375,0.67285156,-0.28710938,65.59375,25.71875,28.90625,0.0,0.0,0.0
1695310750534,0.67089844,1.2597656,-0.1484375,-43.0,65.53125,80.125,0.0,0.0,0.0
1695310750574,0.030273438,-0.65722656,0.21679688,-115.9375,110.75,141.34375,0.0,0.0,0.0
1695310750614,-0.74609375,-1.9814453,-0.30371094,90.0625,-48.3125,21.84375,-35.25,-1.1875,-120.5
1695310750654,-0.6533203,-0.81640625,-0.5527344,-108.71875,19.4375,-130.6875,0.0,0.0,0.0
1695310750694,-1.8457031,1.8330078,1.9970703,-1.78125,113.9375,-170.90625,0.0,0.0,0.0
1695310750734,-1.9697266,0.3720703,-1.3759766,112.09375,-50.875,-15.875,0.0,0.0,0.0
1695310750774,-0.36523438,0.82421875,0.5341797,-253.0625,48.9375,50.21875,0.0,0.0,0.0
1695310750814,-1.9697266,1.28125,-0.38671875,-6.5,-59.0625,82.9375,0.0,0.0,0.0
1695310750854,-1.7841797,-0.16894531,-0.8623047,363.375,53.375,216.46875,0.0,0.0,0.0
1695310750894,-1.3457031,-0.86328125,0.7734375,-307.5,129.90625,114.4375,0.0,0.0,0.0
1695310750934,-0.859375,-0.140625,-0.09472656,20.96875,-18.03125,71.6875,0.0,0.0,0.0
1695310750974,-0.20605469,-0.48632812,-0.05078125,3.15625,-19.5,58.09375,0.0,0.0,0.0
1695310751014,0.12011719,-0.99121094,0.19140625,52.65625,-32.0,61.5,0.0,0.0,0.0
1695310751054,0.091796875,-0.6767578,0.103515625,80.125,-49.34375,-86.625,0.0,0.0,0.0
1695310751094,-0.41210938,0.5595703,0.37890625,-54.03125,-76.1875,-134.21875,-36.4375,8.5625,-121.25
1695310751135,-1.1992188,0.14941406,-0.15527344,19.5625,-126.0,-131.53125,0.0,0.0,0.0
1695310751175,-1.9697266,-0.12011719,-0.10546875,-13.09375,-39.40625,-194.78125,0.0,0.0,0.0
1695310751215,-1.5175781,0.20019531,-0.038085938,-161.34375,-95.3125,-116.46875,0.0,0.0,0.0
1695310751255,-1.9697266,-0.19238281,-0.12207031,-62.40625,-9.4375,-66.53125,0.0,0.0,0.0
1695310751295,-1.3759766,0.072265625,-0.16894531,72.84375,-2.09375,-9.15625,0.0,0.0,0.0
1695310751335,-0.6015625,0.40625,-0.2578125,25.875,30.375,25.375,0.0,0.0,0.0
1695310751375,0.27441406,0.7548828,0.1015625,-4.46875,36.84375,65.59375,0.0,0.0,0.0
1695310751415,0.2529297,0.06738281,0.072265625,-64.96875,103.3125,146.84375,0.0,0.0,0.0
1695310751455,-0.2548828,-1.5683594,0.86621094,104.0,-66.96875,82.875,0.0,0.0,0.0
1695310751495,-0.78125,-1.2958984,-0.31054688,-79.59375,34.53125,-105.46875,0.0,0.0,0.0
1695310751535,-0.17578125,0.328125,-0.15429688,18.0,-113.4375,-141.4375,0.0,0.0,0.0
1695310751575,-1.9697266,0.06640625,-1.7060547,82.9375,-332.71875,-4.03125,0.0,0.0,0.0
1695310751615,0.27246094,0.13671875,0.44628906,-425.125,168.4375,83.0,-33.875,-9.6875,-110.875
1695310751655,-1.9667969,0.9189453,-0.30078125,99.40625,-71.6875,52.78125,0.0,0.0,0.0
1695310751695,-1.4316406,0.6279297,-0.48535156,43.125,96.34375,128.15625,0.0,0.0,0.0
1695310751735,-1.2929688,-0.7294922,0.032226562,-115.6875,102.5,130.46875,0.0,0.0,0.0
1695310751775,-0.72558594,-0.020507812,-0.01953125,-10.40625,44.96875,99.03125,0.0,0.0,0.0
1695310751815,-0.6660156,0.22558594,-0.032226562,-38.96875,52.09375,89.03125,0.0,0.0,0.0
1695310751855,-0.5126953,-0.5126953,0.36914062,-21.125,3.75,112.15625,0.0,0.0,0.0
1695310751896,-0.68652344,-0.6269531,-0.18945312,-65.4375,-3.9375,44.0625,0.0,0.0,0.0
1695310751936,-0.65234375,-0.50683594,0.057617188,-0.6875,-41.28125,-19.90625,0.0,0.0,0.0
1695310751976,-0.86328125,-0.4892578,0.38671875,19.03125,-73.875,-74.125,0.0,0.0,0.0
1695310752016,-1.9697266,-0.7529297,-0.08105469,83.90625,-143.09375,-163.65625,0.0,0.0,0.0
1695310752056,-1.9697266,0.13183594,-0.103515625,107.15625,-69.5,-210.28125,0.0,0.0,0.0
1695310752096,-1.9697266,1.1923828,-0.48339844,41.78125,-81.875,-102.5625,-36.875,-3.125,-114.1875
1695310752136,-0.99902344,-0.6015625,0.13085938,-51.34375,-11.3125,-59.53125,0.0,0.0,0.0
1695310752176,-1.0400391,-0.5078125,-0.16113281,117.21875,-13.6875,-89.125,0.0,0.0,0.0
1695310752216,-0.90722656,0.07128906,-0.4921875,183.40625,-10.28125,-59.40625,0.0,0.0,0.0
1695310752256,-0.5292969,0.41992188,-0.3095703,167.71875,20.125,-44.28125,0.0,0.0,0.0
1695310752296,-0.17382812,0.2919922,-0.021484375,203.34375,10.34375,-30.21875,0.0,0.0,0.0
1695310752336,-0.22167969,0.2890625,-0.0029296875,177.28125,29.15625,-6.78125,0.0,0.0,0.0
1695310752376,-0.8613281,-0.11035156,0.29101562,173.09375,81.9375,52.53125,0.0,0.0,0.0
1695310752416,-1.4433594,-0.59472656,0.15820312,301.8125,35.5625,55.96875,0.0,0.0,0.0
1695310752456,-1.1269531,-0.20410156,0.2109375,215.375,-18.09375,18.84375,0.0,0.0,0.0
1695310752496,-0.90527344,0.5107422,0.0859375,136.21875,15.15625,-20.78125,0.0,0.0,0.0
1695310752536,-0.7988281,1.0839844,-0.234375,-22.34375,32.5,-51.46875,0.0,0.0,0.0
1695310752576,-0.23828125,-0.11230469,-0.052734375,-76.25,53.125,58.46875,0.0,0.0,0.0
1695310752616,-0.16113281,-0.12988281,-0.43554688,-150.59375,70.84375,69.9375,0.0,0.0,0.0
1695310752657,-0.02734375,-0.39257812,1.9970703,53.5,120.09375,33.4375,0.0,0.0,0.0
1695310752697,-1.9697266,0.7988281,1.3759766,-104.03125,107.40625,-14.1875,-33.625,3.8125,-91.375
1695310752737,-0.24121094,0.81152344,-0.034179688,-25.28125,-3.125,38.375,0.0,0.0,0.0
1695310752777,-1.5029297,0.6484375,-0.203125,-108.125,25.1875,127.65625,0.0,0.0,0.0
1695310752817,-1.9697266,-0.609375,-0.58496094,-86.75,47.28125,139.03125,0.0,0.0,0.0
1695310752857,-1.9697266,-1.3613281,-0.30859375,95.6875,58.375,212.3125,0.0,0.0,0.0
1695310752897,-1.9697266,-0.38671875,0.7265625,20.90625,64.1875,181.0625,0.0,0.0,0.0
1695310752937,-0.86035156,-0.31933594,-0.030273438,6.4375,21.34375,57.96875,0.0,0.0,0.0
1695310752977,0.0009765625,-0.24121094,0.20605469,-6.1875,21.40625,49.0625,0.0,0.0,0.0
1695310753017,-0.16210938,-0.83984375,-0.28710938,-63.25,-45.0,16.65625,0.0,0.0,0.0
1695310753057,0.53222656,-0.8828125,0.25878906,119.375,25.84375,-19.0,0.0,0.0,0.0
1695310753097,-0.51171875,-0.10546875,0.39257812,63.875,-41.21875,-151.125,0.0,0.0,0.0
1695310753137,-0.8203125,0.33203125,-0.06542969,1.625,-125.28125,-137.53125,0.0,0.0,0.0
1695310753177,-1.9697266,-0.17578125,0.16894531,43.25,-4.71875,-282.90625,0.0,0.0,0.0
1695310753217,-1.9697266,0.12792969,-0.0390625,-96.625,-133.875,-23.9375,-35.125,9.0625,-94.125
1695310753257,-1.9697266,-0.58203125,-0.087890625,-108.15625,-10.78125,-135.5625,0.0,0.0,0.0
1695310753297,-1.5927734,-0.44921875,-0.26757812,175.75,-50.6875,-62.40625,0.0,0.0,0.0
1695310753337,-0.50683594,0.6074219,-0.39160156,191.09375,-59.09375,9.5625,0.0,0.0,0.0
1695310753377,0.47460938,0.9404297,-0.31347656,78.78125,13.40625,41.25,0.0,0.0,0.0
1695310753418,0.9501953,0.8574219,-0.60253906,-63.6875,164.875,122.0,0.0,0.0,0.0
1695310753458,-0.4951172,-0.3125,0.7236328,-147.84375,175.5625,132.96875,0.0,0.0,0.0
1695310753498,-1.1425781,-1.6865234,0.18847656,250.21875,-111.1875,-10.5,0.0,0.0,0.0
1695310753538,-0.4140625,-0.48339844,-0.7685547,-136.1875,-8.625,-117.3125,0.0,0.0,0.0
1695310753578,-1.9697266,1.6396484,-0.23242188,-7.65625,-220.25,-85.34375,0.0,0.0,0.0
1695310753618,-0.16210938,0.036132812,-0.8330078,-107.5625,-63.0625,-27.1875,0.0,0.0,0.0
1695310753658,-1.3564453,1.0673828,-0.3671875,-1.40625,46.0625,144.8125,0.0,0.0,0.0
1695310753698,-1.9697266,0.42285156,-0.6542969,11.21875,86.40625,223.9375,-37.8125,9.1875,-95.625
1695310753738,-1.9697266,-0.06738281,-0.38183594,69.8125,55.40625,198.59375,0.0,0.0,0.0
1695310753778,-1.2607422,-0.62402344,-0.09082031,-79.25,58.3125,130.34375,0.0,0.0,0.0
1695310753818,-0.25683594,-0.5048828,0.5917969,24.8125,21.59375,104.21875,0.0,0.0,0.0
1695310753858,-0.34765625,-1.2744141,-0.57421875,-45.3125,-46.28125,26.40625,0.0,0.0,0.0
1695310753898,0.5234375,-0.6982422,0.12597656,69.375,-3.375,-58.0625,0.0,0.0,0.0
1695310753938,-0.3720703,0.30566406,0.6074219,-1.59375,-70.78125,-145.875,0.0,0.0,0.0
1695310753978,-0.23144531,0.20996094,-0.09277344,7.96875,-102.75,-94.3125,0.0,0.0,0.0
1695310754018,-0.94140625,0.29882812,-0.034179688,15.59375,-127.09375,-212.40625,0.0,0.0,0.0
1695310754058,-1.9697266,0.5761719,0.15527344,-21.875,-68.5,-178.65625,0.0,0.0,0.0
1695310754098,-1.9697266,-0.005859375,-0.7548828,-139.84375,-53.5,-124.53125,0.0,0.0,0.0
1695310754138,-1.7919922,-0.33789062,0.2783203,6.03125,-7.15625,-84.4375,0.0,0.0,0.0
1695310754179,-1.0361328,0.35742188,-0.49609375,178.03125,-33.84375,-15.8125,0.0,0.0,0.0
1695310754219,0.22949219,0.9091797,-0.12597656,38.9375,28.90625,25.625,-32.375,3.5,-87.625
1695310754259,1.2490234,1.0126953,-0.4501953,-25.34375,129.5,128.15625,0.0,0.0,0.0
1695310754299,-0.359375,-0.5136719,0.30664062,-68.875,161.84375,157.53125,0.0,0.0,0.0
1695310754339,-1.2138672,-1.9814453,-0.32714844,152.4375,-116.59375,-41.46875,0.0,0.0,0.0
1695310754379,-0.5859375,-0.5449219,-0.9404297,-226.34375,35.75,-173.59375,0.0,0.0,0.0
1695310754419,-1.9697266,2.0175781,1.9970703,103.625,502.21875,-264.3125,0.0,0.0,0.0
1695310754459,-1.9697266,0.064453125,-1.2646484,12.375,-83.53125,-17.78125,0.0,0.0,0.0
1695310754499,0.07910156,0.7011719,0.17578125,-75.875,16.09375,64.9375,0.0,0.0,0.0
1695310754539,-1.9697266,1.2753906,-0.4892578,-139.78125,-16.9375,92.15625,0.0,0.0,0.0
1695310754579,-1.9697266,-1.6259766,1.1484375,400.125,191.875,287.21875,0.0,0.0,0.0
1695310754619,-1.3925781,0.30371094,0.27539062,-32.0,74.9375,102.40625,0.0,0.0,0.0
1695310754659,-0.6123047,-0.53027344,0.0546875,16.65625,30.96875,106.90625,0.0,0.0,0.0
1695310754699,-0.032226562,-1.0185547,0.15429688,-38.34375,-40.0625,71.34375,-33.0,23.75,-99.625
1695310754739,0.3466797,-1.0322266,-0.1484375,86.15625,-33.40625,7.6875,0.0,0.0,0.0
1695310754779,0.04296875,-0.19140625,0.43554688,11.46875,-26.21875,-112.75,0.0,0.0,0.0
1695310754819,-0.3388672,0.24902344,-0.028320312,39.15625,-88.03125,-116.84375,0.0,0.0,0.0
1695310754859,-1.4609375,0.6582031,-0.19238281,76.65625,-92.125,-205.75,0.0,0.0,0.0
1695310754899,-1.9697266,0.5390625,0.4111328,-54.15625,-38.96875,-135.15625,0.0,0.0,0.0
1695310754940,-1.9697266,-0.00390625,-0.5527344,-91.25,-62.65625,-137.84375,0.0,0.0,0.0
1695310754980,-1.9423828,-0.8076172,0.35253906,-106.46875,2.71875,-87.78125,0.0,0.0,0.0
1695310755020,-1.2431641,0.0234375,-0.5048828,219.53125,-72.28125,-15.625,0.0,0.0,0.0
1695310755060,0.0,1.0722656,-0.37890625,76.71875,-12.78125,11.59375,0.0,0.0,0.0
1695310755100,1.3212891,1.2949219,-0.5078125,2.25,90.65625,110.65625,0.0,0.0,0.0
1695310755140,-0.16210938,-0.4375,-0.05078125,-178.96875,184.59375,121.1875,0.0,0.0,0.0
1695310755180,-1.1767578,-1.5576172,1.9970703,214.34375,-122.90625,53.875,0.0,0.0,0.0
1695310755220,-1.4375,-1.2304688,-0.6171875,-63.96875,59.0,-136.90625,-36.625,13.6875,-93.0625
1695310755260,-1.7841797,2.0175781,1.0449219,-182.5625,18.03125,-164.1875,0.0,0.0,0.0
1695310755300,0.16308594,0.15039062,-0.64941406,-61.40625,-43.0625,-23.625,0.0,0.0,0.0
1695310755340,-0.17578125,0.49414062,-0.36132812,3.40625,-8.625,10.90625,0.0,0.0,0.0
1695310755380,-1.9697266,1.4609375,-0.6201172,-139.71875,108.625,157.9375,0.0,0.0,0.0
1695310755420,-1.9697266,-1.1875,1.1640625,310.96875,126.1875,279.15625,0.0,0.0,0.0
1695310755460,-1.4453125,-0.1640625,0.6035156,-121.78125,152.5625,114.90625,0.0,0.0,0.0
1695310755500,-0.42871094,-0.3828125,0.15332031,23.25,45.875,91.0625,0.0,0.0,0.0
1695310755540,-0.17773438,-1.1083984,0.23339844,-55.1875,-51.90625,89.34375,0.0,0.0,0.0
1695310755580,0.23339844,-1.0507812,-0.08105469,-39.625,-51.59375,-18.625,0.0,0.0,0.0
1695310755620,-0.20703125,0.15820312,0.47851562,23.40625,-60.9375,-142.15625,0.0,0.0,0.0
1695310755660,-0.26953125,0.296875,-0.17089844,-13.75,-130.53125,-107.3125,0.0,0.0,0.0
1695310755701,-1.3408203,0.015625,0.107421875,43.25,-125.40625,-156.21875,-36.875,20.5625,-92.3125
1695310755741,-1.9697266,0.0107421875,0.22851562,-47.6875,-60.9375,-161.40625,0.0,0.0,0.0
1695310755781,-1.9697266,0.296875,-0.21386719,-89.1875,-87.6875,-110.0625,0.0,0.0,0.0
1695310755821,-1.9697266,-0.58691406,0.17578125,-85.65625,-14.1875,-100.34375,0.0,0.0,0.0
1695310755861,-1.1972656,0.14746094,-0.33007812,128.46875,-49.46875,-14.84375,0.0,0.0,0.0
1695310755901,-0.29589844,0.67578125,-0.34960938,58.6875,12.65625,4.6875,0.0,0.0,0.0
1695310755941,1.0957031,1.3095703,-0.23242188,-12.28125,85.71875,82.8125,0.0,0.0,0.0
1695310755981,0.16015625,-0.50683594,-0.23632812,-132.59375,193.28125,147.03125,0.0,0.0,0.0
1695310756021,-0.9404297,-1.7119141,1.9931641,129.75,-75.71875,65.65625,0.0,0.0,0.0
1695310756061,-1.2041016,-1.3183594,-0.53808594,15.96875,40.375,-113.53125,0.0,0.0,0.0
1695310756101,-0.14550781,0.7841797,-0.42285156,-69.28125,-121.96875,-126.125,0.0,0.0,0.0
1695310756141,-1.9697266,0.53027344,-2.0019531,-183.25,-76.75,70.78125,0.0,0.0,0.0
1695310756181,0.39941406,-0.22167969,0.3330078,-397.84375,102.34375,87.4375,0.0,0.0,0.0
1695310756221,-1.9697266,0.9082031,-0.38085938,43.5,9.5625,28.0625,-38.25,4.5625,-91.875
1695310756261,-1.9697266,0.24804688,-0.63378906,39.59375,108.75,205.5,0.0,0.0,0.0
1695310756301,-1.9335938,-1.4863281,0.4609375,0.15625,64.71875,215.125,0.0,0.0,0.0
1695310756341,-1.2353516,0.038085938,0.14941406,-9.21875,39.65625,98.0,0.0,0.0,0.0
1695310756381,-0.234375,-0.4970703,-0.08984375,-17.34375,5.21875,94.84375,0.0,0.0,0.0
1695310756421,0.03125,-1.0410156,0.10839844,33.1875,-13.6875,67.25,0.0,0.0,0.0
1695310756462,0.07910156,-0.87402344,0.10449219,82.125,-1.0625,-13.6875,0.0,0.0,0.0
1695310756502,-0.30273438,0.37109375,0.43066406,6.21875,-55.875,-119.21875,0.0,0.0,0.0
1695310756542,-0.125,0.4873047,0.07128906,-32.625,-120.21875,-75.34375,0.0,0.0,0.0
1695310756582,-1.5019531,-0.14941406,-0.22265625,12.1875,-140.65625,-151.1875,0.0,0.0,0.0
1695310756622,-1.9697266,-0.030273438,0.21484375,-2.6875,-18.03125,-170.59375,0.0,0.0,0.0
1695310756662,-1.2978516,0.4404297,-0.6816406,-161.875,-78.6875,-95.53125,0.0,0.0,0.0
1695310756702,-1.8544922,-1.1679688,0.171875,-79.65625,13.28125,-79.125,-33.875,3.8125,-85.875
1695310756742,-1.3632812,0.01171875,-0.34179688,164.53125,-25.46875,-4.96875,0.0,0.0,0.0
1695310756782,-0.42285156,0.8222656,-0.33007812,93.4375,-7.84375,12.875,0.0,0.0,0.0
1695310756822,0.8105469,1.3623047,-0.23828125,-35.53125,57.84375,47.09375,0.0,0.0,0.0
1695310756862,-0.001953125,-0.51953125,-0.034179688,-43.40625,142.4375,155.8125,0.0,0.0,0.0
1695310756902,-0.52734375,-1.4414062,1.3984375,122.40625,-45.0625,47.90625,0.0,0.0,0.0
1695310756942,-0.7363281,-0.8642578,-0.56933594,-30.15625,18.84375,-79.125,0.0,0.0,0.0
1695310756982,-0.63183594,0.7919922,0.24902344,-98.03125,-35.90625,-119.71875,0.0,0.0,0.0
1695310757022,-1.5791016,0.45214844,-1.6064453,188.09375,-137.21875,-28.875,0.0,0.0,0.0
1695310757062,-0.17285156,0.82714844,-0.45410156,47.96875,21.9375,11.59375,0.0,0.0,0.0
1695310757102,-1.9697266,1.3515625,-0.5292969,-81.0,-16.25,92.28125,0.0,0.0,0.0
1695310757142,-1.7138672,-0.7011719,0.87109375,294.0,119.71875,198.84375,0.0,0.0,0.0
1695310757182,-1.6875,-0.97753906,0.40429688,0.40625,74.875,156.65625,0.0,0.0,0.0
1695310757223,-1.0576172,0.036132812,0.29785156,-58.25,62.53125,91.71875,-37.5,17.125,-95.875
1695310757263,-0.4560547,-0.36328125,-0.053710938,-4.53125,3.40625,84.9375,0.0,0.0,0.0
1695310757303,0.08691406,-0.9765625,0.14550781,0.03125,-41.28125,69.25,0.0,0.0,0.0
1695310757343,0.13671875,-0.83691406,-0.078125,121.5625,-35.25,-16.0625,0.0,0.0,0.0
1695310757383,-0.24804688,-0.0078125,0.52734375,-44.625,-36.84375,-121.15625,0.0,0.0,0.0
1695310757423,-0.77734375,0.28027344,-0.25390625,26.03125,-136.3125,-137.90625,0.0,0.0,0.0
1695310757463,-1.9697266,0.040039062,0.28515625,-75.625,77.125,-238.53125,0.0,0.0,0.0
1695310757503,-1.9697266,0.5517578,0.037109375,41.96875,-125.40625,-44.28125,0.0,0.0,0.0
1695310757543,-1.9697266,-0.14941406,-0.11621094,-124.03125,-62.96875,-84.78125,0.0,0.0,0.0
1695310757583,-1.3916016,-0.08886719,0.064453125,-53.78125,-11.1875,-42.6875,0.0,0.0,0.0
1695310757623,-0.8642578,0.34375,-0.33691406,9.4375,-2.78125,5.28125,0.0,0.0,0.0
1695310757663,0.047851562,0.7138672,-0.3466797,3.34375,9.375,33.3125,0.0,0.0,0.0
1695310757703,0.59277344,0.58496094,-0.43359375,-36.09375,115.875,112.65625,-35.875,4.0625,-88.5625
1695310757743,-0.46289062,-0.59375,0.79296875,-150.53125,86.21875,99.28125,0.0,0.0,0.0
1695310757783,-0.7636719,-1.6826172,-0.42285156,229.84375,-57.53125,15.5,0.0,0.0,0.0
1695310757823,-0.33496094,-0.5683594,-0.82714844,-139.25,-54.59375,-161.75,0.0,0.0,0.0
1695310757863,-1.7783203,1.0693359,1.2773438,280.5625,-94.3125,-120.875,0.0,0.0,0.0
1695310757903,0.14746094,-0.036132812,0.07421875,-157.25,42.15625,25.4375,0.0,0.0,0.0
1695310757943,-1.2685547,0.75683594,-0.23925781,128.8125,-43.90625,1.09375,0.0,0.0,0.0
1695310757984,-1.6328125,0.11425781,-0.2783203,63.53125,71.125,143.90625,0.0,0.0,0.0
1695310758024,-1.2705078,-0.09082031,-0.2265625,5.53125,48.96875,106.25,0.0,0.0,0.0
1695310758064,-1.0537109,-0.12597656,0.045898438,3.65625,57.09375,113.09375,0.0,0.0,0.0
1695310758104,-0.77441406,-0.19238281,-0.04296875,-13.09375,74.375,96.0,0.0,0.0,0.0
1695310758144,-0.58203125,0.052734375,0.018554688,-24.8125,82.0625,84.28125,0.0,0.0,0.0
1695310758184,-0.5292969,-0.51953125,0.421875,-21.4375,7.53125,84.9375,0.0,0.0,0.0
1695310758224,-0.9345703,-0.7480469,0.26660156,-45.96875,-34.09375,15.1875,-37.625,17.0,-101.3125
1695310758264,-0.62890625,-0.37890625,0.0087890625,53.875,-98.28125,-33.46875,0.0,0.0,0.0
1695310758304,-1.4492188,-0.6904297,0.2265625,17.8125,-146.8125,-117.4375,0.0,0.0,0.0
1695310758344,-1.9326172,-0.53808594,-0.35351562,244.625,-118.375,-185.875,0.0,0.0,0.0
1695310758384,-1.9697266,0.8417969,-0.9746094,241.625,-78.8125,-112.375,0.0,0.0,0.0
1695310758424,-0.9951172,-0.03125,0.021484375,-227.0,168.1875,-79.53125,0.0,0.0,0.0
1695310758464,-1.2431641,-0.40722656,0.04296875,165.28125,-11.8125,-74.125,0.0,0.0,0.0
1695310758504,-0.93847656,0.0146484375,-0.57714844,206.03125,-14.90625,-35.78125,0.0,0.0,0.0
1695310758544,-0.49804688,0.53515625,-0.5419922,167.9375,16.21875,-24.625,0.0,0.0,0.0
1695310758584,-0.091796875,0.5625,-0.36621094,186.9375,62.46875,-0.0625,0.0,0.0,0.0
1695310758624,-0.12988281,0.39941406,-0.18652344,180.9375,57.09375,32.5625,0.0,0.0,0.0
1695310758664,-1.078125,-0.047851562,0.6689453,320.84375,71.1875,71.8125,0.0,0.0,0.0
1695310758704,-1.4521484,-0.91503906,-0.0068359375,269.09375,-10.21875,-3.8125,-37.9375,18.0625,-100.6875
1695310758745,-1.3994141,1.3203125,-0.046875,-3.3125,66.75,-46.09375,0.0,0.0,0.0
1695310758785,-1.4951172,0.9042969,0.27539062,19.75,-44.59375,3.71875,0.0,0.0,0.0
1695310758825,-1.4082031,-1.1367188,0.0048828125,143.90625,17.125,31.0625,0.0,0.0,0.0
1695310758865,-0.3935547,-0.6699219,-0.18261719,99.78125,36.28125,-7.9375,0.0,0.0,0.0
1695310758905,-1.0097656,-0.33984375,-0.23535156,334.15625,36.84375,23.59375,0.0,0.0,0.0
1695310758945,-1.2197266,0.20800781,-0.23242188,213.25,63.8125,-10.15625,0.0,0.0,0.0
1695310758985,-0.9472656,0.31933594,0.0029296875,140.59375,12.5,9.09375,0.0,0.0,0.0
1695310759025,-0.8769531,0.2578125,-0.0859375,162.46875,7.53125,45.15625,0.0,0.0,0.0
1695310759065,-1.0546875,-0.22363281,-0.17480469,113.5625,7.3125,24.8125,0.0,0.0,0.0
1695310759105,-0.9453125,0.13769531,-0.16699219,116.1875,6.125,13.59375,0.0,0.0,0.0
1695310759145,-0.9765625,0.171875,-0.16601562,124.3125,3.15625,28.1875,0.0,0.0,0.0
1695310759185,-0.8515625,-0.0078125,0.12597656,93.0625,-16.03125,-28.8125,0.0,0.0,0.0
1695310759225,-0.17578125,0.111328125,0.17773438,65.28125,31.71875,30.5,0.0,0.0,0.0
1695310759265,-0.07128906,-0.1953125,-0.08105469,-14.1875,56.96875,79.625,0.0,0.0,0.0
1695310759305,0.055664062,-0.1875,-0.053710938,-61.40625,31.90625,33.0625,0.0,0.0,0.0
1695310759345,-0.0009765625,0.11230469,0.7001953,-70.15625,20.78125,-17.78125,0.0,0.0,0.0
1695310759385,-1.8710938,0.4404297,0.20703125,-66.71875,43.78125,13.59375,0.0,0.0,0.0
1695310759425,-1.2197266,0.31835938,-0.2919922,-109.40625,-5.40625,39.53125,0.0,0.0,0.0
1695310759465,-1.2431641,0.5361328,-0.19335938,-47.25,-0.6875,111.3125,0.0,0.0,0.0
1695310759506,-1.9697266,-0.09667969,-0.47753906,-9.125,32.4375,149.59375,0.0,0.0,0.0
1695310759546,-1.9697266,-1.4101562,-0.1953125,73.78125,72.3125,232.53125,0.0,0.0,0.0
1695310759586,-1.3125,-0.22265625,0.38671875,41.4375,58.375,130.71875,-35.6875,8.125,-123.375
1695310759626,-0.73046875,-0.2578125,0.12207031,-3.5,40.9375,57.34375,0.0,0.0,0.0
1695310759666,-0.28125,-0.32128906,0.072265625,-31.8125,31.90625,41.0,0.0,0.0,0.0
1695310759706,0.043945312,-0.84375,0.02734375,-14.53125,-8.6875,30.5,0.0,0.0,0.0
1695310759746,0.42578125,-0.9716797,0.18554688,112.40625,-29.1875,-36.625,0.0,0.0,0.0
1695310759786,-0.46875,0.15429688,0.3876953,-1.125,-48.5,-142.34375,0.0,0.0,0.0
1695310759826,-0.7998047,0.22949219,-0.02734375,31.15625,-119.21875,-137.96875,0.0,0.0,0.0
1695310759866,-1.9697266,-0.3203125,-0.33789062,6.6875,-31.9375,-310.3125,0.0,0.0,0.0
1695310759906,-1.390625,0.36816406,0.14648438,-103.34375,-107.75,-50.96875,0.0,0.0,0.0
1695310759946,-1.9697266,-0.6542969,-0.27148438,-65.5625,-10.84375,-91.4375,0.0,0.0,0.0
1695310759986,-1.6269531,-0.09277344,-0.14453125,131.875,-37.25,-45.3125,0.0,0.0,0.0
1695310760026,-0.46289062,0.8232422,-0.34375,80.3125,-28.90625,-4.21875,0.0,0.0,0.0
1695310760066,0.57714844,0.8066406,-0.22070312,16.65625,20.46875,52.59375,0.0,0.0,0.0
1695310760106,0.7685547,0.24804688,-0.640625,-56.40625,153.40625,154.46875,-37.625,-9.25,-113.125
1695310760146,-0.5751953,-0.94433594,1.9970703,-88.40625,86.28125,70.71875,0.0,0.0,0.0
1695310760186,-1.0185547,-0.60253906,-1.6474609,64.9375,34.46875,-52.75,0.0,0.0,0.0
1695310760226,-1.5869141,0.53027344,1.7988281,-278.71875,73.34375,-146.75,0.0,0.0,0.0
1695310760267,-0.6816406,0.65527344,1.4404297,-155.46875,-68.875,-61.34375,0.0,0.0,0.0
1695310760307,-0.23242188,0.48828125,-0.328125,67.84375,-78.15625,98.9375,0.0,0.0,0.0
1695310760347,-1.9697266,1.1542969,-0.53027344,-86.875,63.6875,171.625,0.0,0.0,0.0
1695310760387,-1.9697266,-1.8193359,0.23242188,71.75,112.09375,295.40625,0.0,0.0,0.0
1695310760427,-1.5126953,0.296875,0.46972656,-113.25,132.34375,108.875,0.0,0.0,0.0
1695310760467,-0.5185547,-0.5410156,0.02734375,-11.0,16.34375,66.34375,0.0,0.0,0.0
1695310760507,-0.080078125,-0.4189453,0.18359375,-13.03125,12.71875,64.3125,0.0,0.0,0.0
1695310760547,-0.0068359375,-0.9980469,-0.018554688,87.375,-35.0,55.65625,0.0,0.0,0.0
1695310760587,0.21972656,-0.98046875,0.27929688,69.125,-25.59375,-58.90625,-36.4375,12.0625,-127.5625
1695310760627,-0.39257812,0.4296875,0.07324219,-6.78125,-91.03125,-144.125,0.0,0.0,0.0
1695310760667,-1.5810547,0.8339844,-0.107421875,33.5625,-103.25,-211.1875,0.0,0.0,0.0
1695310760707,-1.9697266,0.46289062,0.4326172,-49.40625,-73.5625,-157.71875,0.0,0.0,0.0
1695310760747,-1.9697266,0.28515625,-0.8955078,-50.0625,-111.53125,-104.8125,0.0,0.0,0.0
1695310760787,-1.9697266,-0.92089844,0.34375,-181.40625,37.03125,-89.8125,0.0,0.0,0.0
1695310760827,-1.3935547,-0.052734375,-0.4814453,192.65625,-48.96875,-20.34375,0.0,0.0,0.0
1695310760867,-0.12402344,0.92578125,-0.3515625,128.9375,-32.4375,11.875,0.0,0.0,0.0
1695310760907,1.3085938,1.3447266,-0.3671875,13.53125,79.5625,79.5,0.0,0.0,0.0
1695310760947,-0.01171875,-0.3125,0.20507812,-130.15625,161.28125,122.1875,0.0,0.0,0.0
1695310760987,-0.9824219,-1.6425781,1.7763672,157.46875,-87.3125,41.5,0.0,0.0,0.0
1695310761028,-1.0722656,-0.9707031,-0.8261719,-116.15625,54.65625,-102.0625,0.0,0.0,0.0
1695310761068,-1.9697266,1.8457031,1.9970703,-192.53125,201.375,-208.625,0.0,0.0,0.0
1695310761108,-0.23144531,-0.41796875,1.2177734,19.5625,-44.71875,-30.03125,-36.125,-8.5,-122.125
1695310761148,-0.7548828,0.6855469,-0.2939453,72.125,17.6875,60.28125,0.0,0.0,0.0
1695310761188,-1.9697266,1.2714844,-0.5800781,-128.625,37.875,120.09375,0.0,0.0,0.0
1695310761228,-1.9697266,-1.8017578,0.59277344,121.0,102.21875,236.9375,0.0,0.0,0.0
1695310761268,-1.3271484,0.015625,0.35058594,-92.0,96.96875,98.4375,0.0,0.0,0.0
1695310761308,-0.3984375,-0.296875,0.12207031,-16.4375,39.46875,88.25,0.0,0.0,0.0
1695310761348,-0.3798828,-0.9404297,0.041015625,-7.09375,-39.875,95.875,0.0,0.0,0.0
1695310761388,0.19824219,-0.9472656,-0.045898438,77.75,-34.09375,26.40625,0.0,0.0,0.0
1695310761428,0.22363281,-0.49804688,0.3701172,39.03125,-55.5,-96.4375,0.0,0.0,0.0
1695310761468,-0.3125,0.43359375,0.19042969,12.625,-94.4375,-134.65625,0.0,0.0,0.0
1695310761508,-1.5615234,0.025390625,-0.0859375,4.125,-109.15625,-176.65625,0.0,0.0,0.0
1695310761548,-1.9697266,0.39941406,-0.051757812,25.125,-27.5,-199.21875,0.0,0.0,0.0
1695310761588,-1.6044922,-0.056640625,-0.26660156,-144.5,-45.8125,-133.5625,-37.9375,-7.0,-115.5625
1695310761628,-1.9697266,-0.4580078,0.08105469,14.9375,-28.65625,-76.84375,0.0,0.0,0.0
1695310761668,-1.1386719,0.34375,-0.20019531,138.21875,-43.375,2.78125,0.0,0.0,0.0
1695310761708,-0.22949219,0.7128906,-0.26464844,13.53125,23.78125,22.75,0.0,0.0,0.0
1695310761748,0.8935547,1.0527344,-0.21875,-76.4375,92.4375,93.0,0.0,0.0,0.0
1695310761789,-0.024414062,-0.4345703,-0.21191406,-122.625,140.28125,166.125,0.0,0.0,0.0
1695310761829,-0.8496094,-1.9814453,1.9970703,200.59375,-149.625,55.90625,0.0,0.0,0.0
1695310761869,-0.9345703,-0.9628906,-0.7939453,-56.59375,12.1875,-144.71875,0.0,0.0,0.0
1695310761909,-0.036132812,1.5107422,1.9970703,-112.9375,-10.71875,-135.34375,0.0,0.0,0.0
1695310761949,-1.4560547,0.62402344,-1.8125,-141.25,-90.25,19.03125,0.0,0.0,0.0
1695310761989,0.06347656,0.12207031,-0.3173828,-114.65625,-19.875,68.40625,0.0,0.0,0.0
1695310762029,-1.9697266,1.1328125,-0.46777344,-96.6875,-38.1875,102.09375,0.0,0.0,0.0
1695310762069,-1.9697266,-0.4501953,-0.7080078,325.46875,22.625,248.21875,0.0,0.0,0.0
1695310762109,-1.3798828,-0.2265625,0.71777344,-76.25,103.125,135.125,-36.125,4.0625,-125.3125
1695310762149,-0.8125,-0.42285156,0.18261719,3.40625,27.375,115.9375,0.0,0.0,0.0
1695310762189,-0.23828125,-0.5859375,0.14648438,-39.5,13.71875,76.875,0.0,0.0,0.0
1695310762229,0.001953125,-0.9375,0.043945312,63.03125,-23.03125,33.75,0.0,0.0,0.0
1695310762269,0.3486328,-0.85058594,0.13476562,114.3125,-11.1875,-45.71875,0.0,0.0,0.0
1695310762309,-0.4580078,0.4296875,0.6328125,-14.46875,-58.6875,-126.96875,0.0,0.0,0.0
1695310762349,-0.6777344,0.2783203,-0.17089844,-36.28125,-108.1875,-120.5625,0.0,0.0,0.0
1695310762389,-1.9697266,-0.48828125,0.00390625,-51.78125,9.625,-271.75,0.0,0.0,0.0
1695310762429,-1.9697266,0.5175781,-0.23828125,26.28125,-135.90625,-51.65625,0.0,0.0,0.0
1695310762469,-1.9697266,-0.41015625,-0.41210938,-234.5625,-15.34375,-96.28125,0.0,0.0,0.0
1695310762509,-1.4326172,-0.033203125,-0.103515625,103.125,-47.875,-45.125,0.0,0.0,0.0
1695310762550,-0.6298828,0.65527344,-0.3544922,73.78125,-3.1875,3.34375,0.0,0.0,0.0
1695310762590,0.8339844,0.9472656,-0.27539062,-41.65625,39.03125,46.625,-34.8125,-10.0,-116.3125
1695310762630,0.7705078,0.4326172,-0.15234375,-145.53125,191.4375,174.3125,0.0,0.0,0.0
1695310762670,-0.85839844,-1.9814453,1.9970703,130.59375,-124.71875,96.90625,0.0,0.0,0.0
1695310762710,-1.4453125,-1.3457031,-0.9345703,-23.8125,37.875,-128.0625,0.0,0.0,0.0
1695310762750,-1.3251953,1.4091797,1.5126953,-129.46875,-84.5625,-174.6875,0.0,0.0,0.0
1695310762790,-0.54589844,0.7138672,-1.4619141,-112.375,-96.78125,-9.53125,0.0,0.0,0.0
1695310762830,-0.16503906,0.29101562,-0.033203125,-148.03125,-4.0,55.09375,0.0,0.0,0.0
1695310762870,-1.9697266,0.9082031,-0.4189453,-0.25,-33.65625,99.96875,0.0,0.0,0.0
1695310762910,-1.8964844,-0.9091797,0.2607422,151.90625,107.875,252.5625,0.0,0.0,0.0
1695310762950,-1.3535156,-0.34960938,0.41015625,-48.125,77.375,135.0625,0.0,0.0,0.0
1695310762990,-0.921875,-0.22851562,0.10449219,7.84375,36.78125,83.59375,0.0,0.0,0.0
1695310763030,-0.29101562,-0.50878906,0.043945312,6.09375,3.03125,91.71875,0.0,0.0,0.0
1695310763070,0.045898438,-1.0332031,0.10058594,8.53125,-41.34375,44.78125,0.0,0.0,0.0
1695310763110,0.16113281,-0.5751953,0.057617188,79.5625,-47.15625,-77.84375,-34.625,10.6875,-124.6875
1695310763150,-0.33789062,0.3984375,0.35546875,-34.1875,-77.59375,-130.4375,0.0,0.0,0.0
1695310763190,-0.8232422,0.13574219,-0.18164062,22.625,-110.1875,-128.8125,0.0,0.0,0.0
1695310763230,-1.9697266,-0.5595703,0.14453125,13.15625,-0.28125,-207.0,0.0,0.0,0.0
1695310763270,-1.7304688,0.58691406,-0.048828125,-135.75,-103.53125,-90.21875,0.0,0.0,0.0
1695310763311,-1.9697266,-0.44628906,-0.16210938,-113.96875,-3.1875,-83.875,0.0,0.0,0.0
1695310763351,-1.2587891,-0.12890625,-0.19628906,68.65625,-32.5,-32.25,0.0,0.0,0.0
1695310763391,-0.62402344,0.51660156,-0.21289062,74.9375,14.625,11.75,0.0,0.0,0.0
1695310763431,0.31640625,0.7919922,-0.083984375,14.9375,42.03125,59.5,0.0,0.0,0.0
1695310763471,0.86328125,0.35253906,-0.3408203,-59.84375,174.46875,148.125,0.0,0.0,0.0
1695310763511,-0.46875,-1.4355469,1.9970703,52.65625,-58.125,77.875,0.0,0.0,0.0
1695310763551,-1.40625,-1.3300781,-0.7998047,9.75,61.625,-77.40625,0.0,0.0,0.0
1695310763591,-0.33203125,0.48535156,-0.11035156,-105.25,-72.0,-132.8125,-34.0625,-4.1875,-120.8125
1695310763631,-1.7705078,0.5185547,-1.6542969,46.5,-119.09375,-53.71875,0.0,0.0,0.0
1695310763671,-0.28222656,0.95996094,0.22949219,-140.65625,30.0625,16.71875,0.0,0.0,0.0
1695310763711,-1.9697266,1.0888672,-0.3564453,-68.0,1.375,92.09375,0.0,0.0,0.0
1695310763751,-1.9697266,0.015625,-0.6269531,186.09375,64.0,188.875,0.0,0.0,0.0
1695310763791,-1.5429688,-1.1484375,0.22460938,-52.6875,98.1875,176.875,0.0,0.0,0.0
1695310763831,-0.87402344,-0.22363281,0.1875,-8.0625,53.125,103.8125,0.0,0.0,0.0
1695310763871,-0.50390625,-0.29492188,0.24804688,-5.4375,2.53125,71.53125,0.0,0.0,0.0
1695310763911,-0.09082031,-0.80371094,-0.025390625,2.1875,-40.8125,31.46875,0.0,0.0,0.0
1695310763951,0.22753906,-0.8095703,0.12988281,67.0,-32.125,-6.59375,0.0,0.0,0.0
1695310763991,-0.16894531,-0.005859375,0.41601562,-9.90625,-80.15625,-136.71875,0.0,0.0,0.0
1695310764031,-0.4111328,0.23730469,-0.0146484375,64.75,-118.8125,-121.46875,0.0,0.0,0.0
1695310764072,-1.9697266,-0.22753906,-0.18359375,66.75,-105.25,-258.25,0.0,0.0,0.0
1695310764112,-1.9335938,0.51660156,0.7089844,-199.40625,-59.28125,-16.9375,-35.5625,-5.6875,-114.1875
1695310764152,-1.9697266,-0.234375,-0.0625,-89.625,-36.40625,-102.25,0.0,0.0,0.0
1695310764192,-1.7294922,-0.34179688,0.1484375,7.71875,-9.78125,-52.3125,0.0,0.0,0.0
1695310764232,-1.0175781,0.3125,-0.14355469,86.78125,-36.46875,5.46875,0.0,0.0,0.0
1695310764272,-0.28515625,0.5449219,-0.26757812,-13.375,34.9375,29.03125,0.0,0.0,0.0
1695310764312,0.3330078,0.7578125,-0.26757812,-54.15625,100.6875,96.0,0.0,0.0,0.0
1695310764352,-0.24902344,-0.5810547,0.16699219,-162.6875,113.75,111.125,0.0,0.0,0.0
1695310764392,-0.50683594,-1.7626953,0.25195312,113.375,-51.0625,53.21875,0.0,0.0,0.0
1695310764432,-0.66796875,-1.0068359,-0.33984375,-19.625,6.5625,-94.1875,0.0,0.0,0.0
1695310764472,-1.9697266,1.3535156,1.9970703,-18.9375,213.15625,-189.65625,0.0,0.0,0.0
1695310764512,-1.9697266,0.2734375,-1.6005859,136.59375,-112.03125,-45.4375,0.0,0.0,0.0
1695310764552,-0.80859375,0.7626953,-0.39941406,-76.625,-1.1875,-28.875,0.0,0.0,0.0
1695310764592,-1.9697266,0.9511719,-0.40820312,10.3125,-8.6875,85.0,-35.5625,-7.75,-120.0625
1695310764632,-1.6669922,-0.26757812,0.0234375,78.03125,45.5,129.4375,0.0,0.0,0.0
1695310764672,-0.99902344,-0.69921875,0.057617188,-100.3125,64.4375,126.5,0.0,0.0,0.0
1695310764712,-0.64453125,0.1171875,-0.06738281,11.46875,9.75,83.96875,0.0,0.0,0.0
1695310764752,-0.37402344,0.1796875,-0.009765625,-70.09375,46.59375,77.0625,0.0,0.0,0.0
1695310764792,-0.5908203,-0.29003906,0.068359375,-48.53125,6.1875,92.21875,0.0,0.0,0.0
1695310764833,-0.5888672,-0.5253906,0.06347656,-79.84375,-12.21875,50.03125,0.0,0.0,0.0
1695310764873,-0.8076172,-0.78808594,0.11425781,-17.46875,-19.5625,8.78125,0.0,0.0,0.0
1695310764913,-0.8046875,-0.9277344,0.18359375,46.6875,-102.0625,-58.5,0.0,0.0,0.0
1695310764953,-1.9697266,-0.6386719,-0.20703125,122.40625,-101.84375,-179.09375,0.0,0.0,0.0
1695310764993,-1.9697266,0.4189453,-0.39941406,103.9375,-59.15625,-199.71875,0.0,0.0,0.0
1695310765033,-1.6142578,1.1132812,-0.18164062,29.46875,-102.5625,-114.15625,0.0,0.0,0.0
1695310765073,-1.0996094,-0.48242188,-0.09277344,-46.40625,11.75,-79.0,0.0,0.0,0.0
1695310765113,-1.2480469,-0.36132812,-0.3046875,56.875,10.40625,-84.5,-35.25,-5.8125,-114.625
1695310765153,-0.88183594,0.14550781,-0.57421875,174.90625,-1.125,-70.15625,0.0,0.0,0.0
1695310765193,-0.5185547,0.34570312,-0.35546875,228.9375,14.4375,-50.84375,0.0,0.0,0.0
1695310765233,-0.15039062,0.5185547,-0.25,237.21875,-4.0,-33.03125,0.0,0.0,0.0
1695310765273,-0.2607422,0.53027344,-0.10839844,166.0,36.84375,8.28125,0.0,0.0,0.0
1695310765313,-0.8798828,-0.12011719,0.63964844,280.625,54.90625,71.46875,0.0,0.0,0.0
1695310765353,-1.5458984,-1.28125,-0.3095703,355.6875,-56.1875,59.25,0.0,0.0,0.0
1695310765393,-1.75,0.45214844,0.030273438,85.0,-22.65625,-40.40625,0.0,0.0,0.0
1695310765433,-0.18359375,1.9882812,-0.5283203,186.09375,6.25,-99.625,0.0,0.0,0.0
1695310765473,-0.3408203,1.0761719,0.3125,-16.625,103.4375,92.34375,0.0,0.0,0.0
1695310765513,-1.9697266,-1.9814453,0.58496094,-92.5,70.90625,-51.09375,0.0,0.0,0.0
1695310765554,-0.8691406,-0.4033203,-0.6748047,212.6875,-62.65625,-22.125,0.0,0.0,0.0
